timestamp,acc_x,acc_y,acc_z,gyr_x,gyr_y,gyr_z
14:05:29.772,-0.01,-0.0,-0.0,-4.43,-0.17,-0.1
14:05:29.779,-0.0,-0.01,-0.0,-4.55,-0.03,0.04
14:05:29.787,-0.0,-0.01,0.0,-4.53,-0.17,-0.03
14:05:29.794,-0.0,-0.0,-0.0,-4.41,0.01,0.17
14:05:29.801,-0.01,-0.0,-0.0,-4.47,0.07,-0.05
14:05:29.808,0.01,-0.02,-0.01,-4.55,-0.08,0.01
14:05:29.816,-0.01,-0.01,0.0,-4.43,0.13,0.17
14:05:29.823,-0.01,-0.01,0.02,-4.56,-0.05,-0.04
14:05:29.831,-0.0,-0.0,-0.0,-4.5,0.03,0.05
14:05:29.838,-0.01,-0.01,0.02,-4.55,-0.03,-0.04
14:05:29.846,-0.01,-0.01,-0.0,-4.41,-0.02,-0.01
14:05:29.853,-0.01,0.01,0.0,-4.43,0.05,-0.17
14:05:29.860,-0.0,-0.01,-0.0,-4.45,-0.0,0.12
14:05:29.867,-0.01,-0.01,0.01,-4.5,-0.03,-0.08
14:05:29.875,-0.0,-0.01,-0.01,-4.58,0.07,-0.12
14:05:29.882,-0.01,-0.01,0.0,-4.36,-0.06,-0.01
14:05:29.889,0.0,-0.0,-0.0,-4.39,-0.11,0.05
14:05:29.896,-0.01,-0.0,-0.0,-4.55,0.05,-0.01
14:05:29.903,0.0,-0.02,0.01,-4.52,0.11,-0.11
14:05:29.911,-0.0,-0.0,-0.0,-4.45,-0.08,0.0
14:05:29.918,-0.01,-0.0,-0.0,-4.54,0.11,-0.2
14:05:29.925,0.0,-0.01,-0.0,-4.47,-0.03,-0.14
14:05:29.932,-0.01,-0.02,-0.01,-4.37,0.04,-0.03
14:05:29.939,0.0,-0.0,-0.0,-4.52,0.08,-0.05
14:05:29.947,0.0,-0.01,0.0,-4.47,0.18,0.01
14:05:29.954,-0.0,-0.0,0.0,-4.4,-0.04,0.08
14:05:29.962,-0.0,-0.0,0.0,-4.47,-0.02,0.02
14:05:29.969,-0.0,-0.01,-0.0,-4.47,0.05,-0.05
14:05:29.976,-0.0,0.01,0.01,-4.47,0.04,0.08
14:05:29.984,-0.0,-0.01,-0.0,-4.55,-0.12,-0.03
14:05:29.991,-0.0,-0.0,0.01,-4.55,0.02,0.18
14:05:29.999,-0.0,0.0,0.0,-4.38,0.18,0.12
14:05:30.006,-0.0,0.01,-0.01,-4.34,0.07,-0.01
14:05:30.014,-0.0,-0.0,-0.01,-4.61,0.08,-0.14
14:05:30.021,-0.01,0.0,-0.01,-4.4,-0.04,-0.23
14:05:30.029,-0.0,-0.0,-0.0,-4.44,0.11,0.03
14:05:30.036,-0.01,-0.02,-0.0,-4.37,-0.02,-0.04
14:05:30.044,-0.0,-0.0,0.01,-4.53,0.05,-0.12
14:05:30.051,-0.0,-0.0,-0.0,-4.42,-0.07,-0.12
14:05:30.058,-0.0,0.0,-0.0,-4.52,-0.01,0.09
14:05:30.066,-0.01,-0.01,-0.01,-4.7,-0.04,0.03
14:05:30.076,0.0,-0.01,-0.0,-4.45,-0.06,0.03
14:05:30.083,-0.0,-0.0,0.0,-4.58,-0.06,-0.08
14:05:30.090,0.0,-0.01,0.01,-4.39,-0.0,-0.01
14:05:30.097,0.01,-0.01,0.0,-4.42,-0.14,-0.16
14:05:30.105,-0.01,-0.0,-0.0,-4.63,0.08,-0.04
14:05:30.112,-0.0,-0.01,0.0,-4.53,0.05,0.03
14:05:30.119,-0.0,-0.02,-0.01,-4.56,-0.06,-0.09
14:05:30.127,0.0,-0.0,0.0,-4.44,-0.13,-0.08
14:05:30.134,-0.01,-0.01,-0.01,-4.54,0.08,-0.08
14:05:30.141,-0.01,-0.0,0.0,-4.45,-0.02,-0.02
14:05:30.149,-0.01,-0.0,-0.0,-4.43,-0.0,0.11
14:05:30.156,0.0,-0.0,0.01,-4.4,-0.12,0.02
14:05:30.163,-0.0,-0.0,0.0,-4.46,-0.04,0.02
14:05:30.171,-0.0,-0.01,0.02,-4.44,-0.07,-0.14
14:05:30.178,-0.0,-0.0,-0.01,-4.39,-0.1,-0.08
14:05:30.185,-0.0,-0.0,0.0,-4.35,-0.08,-0.18
14:05:30.192,-0.01,-0.01,-0.01,-4.56,0.03,-0.05
14:05:30.200,-0.0,-0.01,0.0,-4.56,-0.03,-0.01
14:05:30.207,-0.01,-0.01,0.0,-4.62,0.03,-0.16
14:05:30.214,-0.01,-0.02,-0.01,-4.53,-0.01,-0.01
14:05:30.222,0.0,-0.01,-0.0,-4.63,0.16,0.01
14:05:30.229,-0.0,-0.0,0.02,-4.53,-0.02,0.04
14:05:30.236,-0.02,-0.01,-0.0,-4.4,0.07,-0.23
14:05:30.244,-0.0,-0.0,0.0,-4.49,-0.15,0.05
14:05:30.251,-0.0,-0.0,0.02,-4.56,-0.01,-0.18
14:05:30.258,-0.0,-0.01,0.0,-4.49,0.06,0.0
14:05:30.265,-0.0,-0.01,0.01,-4.52,-0.09,0.05
14:05:30.273,-0.0,-0.02,0.0,-4.62,0.04,-0.07
14:05:30.280,-0.01,-0.0,0.01,-4.47,0.11,-0.03
14:05:30.287,-0.0,0.0,-0.0,-4.33,0.02,-0.03
14:05:30.295,-0.0,-0.0,0.0,-4.54,-0.05,0.06
14:05:30.302,-0.0,0.0,-0.0,-4.55,-0.12,0.08
14:05:30.309,-0.0,0.0,-0.01,-4.47,0.01,-0.05
14:05:30.317,0.0,-0.0,0.0,-4.45,0.05,0.11
14:05:30.324,-0.01,0.0,-0.0,-4.57,-0.03,0.06
14:05:30.331,-0.0,-0.01,0.01,-4.4,-0.07,-0.02
14:05:30.338,0.0,-0.0,0.01,-4.45,0.01,-0.05
14:05:30.346,-0.01,-0.0,-0.0,-4.47,0.04,0.01
14:05:30.353,-0.0,-0.0,-0.0,-4.4,0.2,0.01
14:05:30.360,-0.01,0.0,0.0,-4.6,-0.07,-0.04
14:05:30.368,-0.0,0.0,0.0,-4.46,0.06,-0.13
14:05:30.375,-0.0,-0.01,-0.0,-4.46,0.07,0.08
14:05:30.382,-0.0,-0.01,0.0,-4.44,0.14,0.11
14:05:30.390,-0.01,-0.02,-0.01,-4.52,0.05,-0.02
14:05:30.397,0.0,-0.0,-0.0,-4.44,0.1,-0.03
14:05:30.404,-0.01,-0.0,0.0,-4.47,-0.0,0.1
14:05:30.411,-0.0,-0.01,0.0,-4.36,-0.05,0.04
14:05:30.419,-0.0,-0.0,-0.0,-4.56,-0.16,-0.14
14:05:30.426,-0.01,-0.01,-0.0,-4.44,0.12,-0.06
14:05:30.433,-0.01,-0.01,0.0,-4.44,0.12,0.06
14:05:30.441,0.01,-0.0,0.01,-4.41,-0.02,-0.13
14:05:30.448,-0.0,-0.01,0.02,-4.38,0.08,-0.02
14:05:30.455,0.0,-0.01,-0.01,-4.71,-0.14,-0.15
14:05:30.462,-0.0,-0.01,-0.01,-4.4,0.03,0.06
14:05:30.470,-0.0,-0.0,-0.01,-4.33,-0.1,0.0
14:05:30.477,-0.01,-0.01,0.0,-4.45,0.2,0.02
14:05:30.484,-0.01,0.01,-0.0,-4.43,-0.01,-0.09
14:05:30.492,-0.0,-0.01,-0.01,-4.35,0.06,-0.01
14:05:30.499,0.0,-0.01,-0.0,-4.5,-0.02,0.05
14:05:30.506,-0.01,-0.0,0.01,-4.41,-0.14,-0.12
14:05:30.513,-0.0,0.01,0.01,-4.63,-0.1,0.04
14:05:30.521,0.0,-0.01,-0.0,-4.34,-0.07,-0.11
14:05:30.528,0.01,-0.0,-0.01,-4.6,0.08,0.04
14:05:30.535,-0.0,-0.01,-0.0,-4.4,-0.0,0.02
14:05:30.542,-0.0,-0.01,-0.0,-4.54,0.02,0.11
14:05:30.550,-0.01,0.0,-0.01,-4.5,-0.06,-0.1
14:05:30.557,-0.0,-0.0,-0.01,-4.5,0.03,-0.05
14:05:30.564,-0.01,-0.01,-0.01,-4.5,0.09,0.0
14:05:30.573,-0.0,-0.01,-0.0,-4.48,0.05,0.11
14:05:30.585,-0.01,-0.0,-0.0,-4.36,0.17,-0.01
14:05:30.592,-0.01,-0.0,-0.0,-4.56,0.09,0.02
14:05:30.600,-0.01,-0.0,-0.0,-4.46,-0.02,-0.02
14:05:30.609,-0.01,-0.01,-0.01,-4.42,-0.1,0.03
14:05:30.617,-0.0,-0.0,0.0,-4.53,-0.03,0.0
14:05:30.624,0.0,-0.01,-0.01,-4.45,0.07,0.09
14:05:30.632,-0.01,-0.02,-0.0,-4.55,0.03,-0.05
14:05:30.640,-0.0,-0.01,-0.0,-4.5,-0.05,0.11
14:05:30.648,-0.0,-0.01,-0.01,-4.52,-0.16,0.03
14:05:30.655,-0.0,-0.0,-0.01,-4.49,-0.13,-0.06
14:05:30.661,-0.01,-0.01,-0.01,-4.55,0.05,0.08
14:05:30.668,-0.0,0.01,-0.01,-4.46,-0.08,-0.09
14:05:30.675,0.01,-0.0,0.0,-4.54,-0.03,-0.03
14:05:30.682,0.0,-0.01,-0.0,-4.48,-0.02,-0.02
14:05:30.689,-0.01,-0.0,0.0,-4.55,-0.14,0.0
14:05:30.695,-0.0,-0.01,-0.01,-4.33,0.02,-0.09
14:05:30.702,-0.0,-0.0,0.0,-4.33,0.14,0.02
14:05:30.709,-0.0,0.0,-0.0,-4.53,-0.08,-0.14
14:05:30.716,-0.0,-0.0,0.0,-4.43,0.05,-0.05
14:05:30.723,-0.0,-0.0,-0.01,-4.5,-0.08,-0.13
14:05:30.729,-0.01,-0.01,0.0,-4.54,0.14,0.02
14:05:30.736,-0.0,0.0,-0.0,-4.45,0.14,-0.05
14:05:30.743,-0.0,-0.0,-0.01,-4.55,0.08,-0.15
14:05:30.750,-0.0,-0.0,-0.0,-4.34,0.02,-0.03
14:05:30.757,-0.0,-0.01,0.01,-4.42,-0.14,0.1
14:05:30.763,-0.0,-0.01,-0.0,-4.47,0.08,-0.16
14:05:30.770,-0.01,-0.0,-0.01,-4.44,-0.08,-0.14
14:05:30.777,-0.01,-0.0,-0.0,-4.53,0.02,0.0
14:05:30.784,-0.01,-0.0,0.0,-4.53,0.21,-0.07
14:05:30.791,-0.0,-0.0,0.0,-4.5,0.06,-0.07
14:05:30.797,0.0,-0.01,-0.01,-4.51,-0.02,0.03
14:05:30.804,-0.0,-0.01,-0.01,-4.53,-0.03,-0.01
14:05:30.811,-0.0,-0.0,0.02,-4.4,-0.21,-0.01
14:05:30.818,0.01,0.01,-0.0,-4.37,-0.16,-0.13
14:05:30.824,0.0,-0.01,0.0,-4.44,0.09,-0.17
14:05:30.831,-0.01,-0.01,-0.0,-4.34,0.05,-0.12
14:05:30.838,-0.0,-0.01,-0.0,-4.4,0.02,-0.08
14:05:30.845,-0.0,-0.0,-0.0,-4.53,0.07,-0.08
14:05:30.852,0.01,-0.01,-0.01,-4.35,-0.09,-0.17
14:05:30.859,-0.01,-0.01,0.0,-4.5,-0.06,-0.18
14:05:30.865,0.01,0.01,0.01,-4.44,0.03,-0.19
14:05:30.872,-0.01,0.0,-0.01,-4.48,0.11,-0.06
14:05:30.879,-0.01,-0.01,-0.01,-4.56,-0.03,0.02
14:05:30.886,-0.0,-0.0,-0.0,-4.45,0.11,-0.08
14:05:30.893,-0.0,-0.0,-0.0,-4.48,-0.17,-0.03
14:05:30.900,-0.0,-0.0,0.0,-4.51,-0.02,-0.04
14:05:30.906,-0.0,-0.01,0.01,-4.39,-0.02,0.02
14:05:30.913,-0.0,-0.0,0.0,-4.47,0.12,-0.11
14:05:30.920,-0.0,-0.0,-0.01,-4.49,0.13,0.11
14:05:30.926,-0.01,0.0,0.0,-4.6,0.08,0.08
14:05:30.933,-0.0,-0.0,0.0,-4.51,-0.08,-0.03
14:05:30.940,-0.0,-0.01,-0.0,-4.46,-0.0,-0.01
14:05:30.947,0.0,-0.0,0.0,-4.49,0.02,0.05
14:05:30.953,-0.01,-0.0,-0.0,-4.45,0.08,0.0
14:05:30.960,-0.0,0.0,0.0,-4.4,0.07,0.05
14:05:30.967,-0.01,0.0,-0.0,-4.59,-0.12,-0.01
14:05:30.974,-0.0,-0.0,0.0,-4.34,0.04,0.08
14:05:30.981,0.01,-0.01,-0.0,-4.51,-0.02,0.15
14:05:30.987,-0.01,-0.0,-0.0,-4.49,-0.11,-0.19
14:05:30.994,0.0,-0.0,0.02,-4.45,0.06,0.04
14:05:31.001,-0.01,-0.01,0.02,-4.53,-0.03,-0.08
14:05:31.008,-0.0,-0.02,-0.01,-4.47,0.02,-0.07
14:05:31.015,-0.0,-0.0,-0.0,-4.43,0.02,-0.06
14:05:31.022,-0.01,-0.0,0.01,-4.4,0.11,0.15
14:05:31.029,-0.0,-0.0,0.01,-4.43,-0.01,0.15
14:05:31.036,-0.0,-0.0,-0.0,-4.5,-0.28,0.02
14:05:31.043,-0.0,-0.0,0.0,-4.42,0.06,0.07
14:05:31.049,-0.0,0.01,0.01,-4.42,0.03,0.15
14:05:31.056,-0.0,-0.0,0.0,-4.6,-0.0,0.05
14:05:31.063,-0.01,-0.0,-0.0,-4.39,-0.07,-0.01
14:05:31.070,0.0,-0.0,0.01,-4.42,0.04,-0.02
14:05:31.077,-0.0,-0.02,-0.0,-4.4,-0.12,0.02
14:05:31.084,-0.01,-0.02,-0.01,-4.56,-0.01,-0.11
14:05:31.091,-0.0,-0.01,0.01,-4.47,-0.01,-0.03
14:05:31.097,-0.0,-0.0,0.0,-4.44,0.06,-0.11
14:05:31.104,-0.0,0.0,-0.0,-4.52,-0.07,0.06
14:05:31.111,-0.0,-0.01,-0.01,-4.51,0.02,-0.18
14:05:31.118,-0.0,-0.01,-0.01,-4.48,-0.02,-0.05
14:05:31.125,-0.0,-0.0,-0.01,-4.47,0.07,-0.1
14:05:31.132,-0.01,0.01,-0.01,-4.39,0.11,-0.15
14:05:31.139,-0.0,-0.01,-0.01,-4.39,-0.15,0.1
14:05:31.146,-0.0,-0.0,-0.0,-4.52,-0.03,-0.05
14:05:31.152,-0.0,-0.01,0.0,-4.46,-0.05,-0.03
14:05:31.159,-0.0,-0.0,0.0,-4.61,0.02,-0.03
14:05:31.166,-0.01,-0.0,0.01,-4.51,0.07,-0.16
14:05:31.173,0.01,-0.01,0.01,-4.54,-0.08,-0.05
14:05:31.180,-0.0,-0.01,0.0,-4.38,-0.01,-0.02
14:05:31.186,-0.01,-0.0,-0.01,-4.51,0.04,-0.27
14:05:31.193,-0.0,-0.01,-0.01,-4.5,-0.02,-0.19
14:05:31.200,-0.01,-0.0,0.0,-4.47,0.05,0.03
14:05:31.207,-0.0,-0.01,0.0,-4.46,-0.01,-0.01
14:05:31.213,-0.01,-0.0,0.0,-4.36,-0.04,0.02
14:05:31.220,0.0,-0.01,0.0,-4.65,0.05,-0.01
14:05:31.227,-0.0,-0.0,-0.0,-4.6,-0.08,0.0
14:05:31.233,-0.0,-0.0,-0.01,-4.49,-0.05,-0.09
14:05:31.240,-0.0,-0.0,0.0,-4.4,0.03,0.04
14:05:31.247,0.0,-0.0,0.01,-4.39,0.06,-0.06
14:05:31.254,-0.0,-0.01,0.0,-4.48,-0.08,-0.07
14:05:31.260,-0.0,0.01,-0.01,-4.36,-0.02,-0.14
14:05:31.267,-0.0,-0.0,-0.0,-4.3,-0.03,0.08
14:05:31.274,-0.0,-0.01,-0.0,-4.44,-0.12,0.01
14:05:31.281,-0.01,-0.01,-0.0,-4.5,-0.03,-0.04
14:05:31.288,-0.01,-0.0,-0.0,-4.6,0.02,-0.1
14:05:31.294,-0.01,-0.01,0.01,-4.31,-0.01,-0.11
14:05:31.301,-0.0,-0.0,-0.0,-4.39,-0.05,0.0
14:05:31.308,-0.0,-0.0,0.02,-4.53,-0.05,0.01
14:05:31.315,-0.01,-0.01,-0.0,-4.53,-0.14,0.05
14:05:31.322,0.0,-0.01,0.02,-4.46,0.06,-0.07
14:05:31.329,-0.01,-0.02,-0.01,-4.37,-0.19,-0.05
14:05:31.336,0.0,-0.0,0.0,-4.57,-0.09,-0.14
14:05:31.342,-0.0,-0.01,-0.0,-4.48,0.05,-0.06
14:05:31.349,0.0,-0.0,0.0,-4.5,-0.11,-0.07
14:05:31.356,-0.01,-0.0,0.01,-4.4,0.02,-0.02
14:05:31.364,-0.0,-0.01,0.01,-4.41,-0.05,0.1
14:05:31.372,-0.0,-0.0,-0.0,-4.44,0.04,0.02
14:05:31.379,-0.0,-0.01,-0.0,-4.47,-0.05,0.05
14:05:31.387,-0.01,-0.01,0.02,-4.53,0.01,0.05
14:05:31.395,-0.0,-0.01,0.01,-4.35,0.09,0.15
14:05:31.402,-0.01,-0.02,0.02,-4.39,-0.1,-0.09
14:05:31.410,-0.01,-0.01,-0.0,-4.51,-0.03,-0.04
14:05:31.418,-0.0,-0.0,0.0,-4.42,-0.05,-0.08
14:05:31.426,-0.0,-0.01,-0.0,-4.53,-0.11,0.07
14:05:31.433,-0.01,0.01,-0.0,-4.49,0.14,-0.08
14:05:31.441,-0.01,-0.01,0.01,-4.45,0.02,-0.31
14:05:31.448,0.0,-0.0,-0.01,-4.49,-0.08,-0.04
14:05:31.455,-0.0,-0.01,0.0,-4.42,0.03,-0.15
14:05:31.463,0.0,0.0,0.0,-4.41,0.03,-0.12
14:05:31.470,-0.0,-0.0,-0.0,-4.57,0.02,0.15
14:05:31.477,-0.0,-0.0,0.01,-4.42,-0.02,-0.07
14:05:31.484,-0.0,-0.02,-0.01,-4.44,0.05,-0.06
14:05:31.492,0.01,-0.01,-0.01,-4.49,-0.15,0.08
14:05:31.499,-0.0,-0.0,-0.0,-4.35,-0.03,-0.01
14:05:31.506,-0.01,0.01,-0.01,-4.33,-0.0,-0.01
14:05:31.514,0.0,-0.0,-0.01,-4.37,0.12,-0.02
14:05:31.521,-0.0,-0.0,-0.0,-4.47,0.13,0.04
14:05:31.528,-0.0,-0.01,0.01,-4.43,0.14,-0.16
14:05:31.535,-0.0,-0.0,-0.0,-4.53,0.08,-0.08
14:05:31.543,-0.0,-0.0,0.01,-4.51,0.02,0.15
14:05:31.550,-0.01,-0.01,-0.01,-4.52,0.06,-0.08
14:05:31.557,-0.01,-0.0,0.0,-4.44,-0.05,-0.12
14:05:31.565,-0.01,0.0,-0.0,-4.45,-0.02,-0.07
14:05:31.572,-0.0,-0.0,0.0,-4.46,-0.05,0.08
14:05:31.579,-0.01,-0.0,-0.0,-4.54,-0.0,-0.05
14:05:31.586,-0.01,-0.01,0.02,-4.6,0.02,0.05
14:05:31.594,0.0,0.0,0.02,-4.54,0.02,-0.02
14:05:31.601,-0.0,-0.0,0.0,-4.46,0.04,-0.1
14:05:31.608,0.01,-0.0,-0.0,-4.47,-0.05,-0.15
14:05:31.616,-0.0,-0.0,-0.0,-4.47,-0.02,0.03
14:05:31.623,-0.01,-0.01,-0.01,-4.4,-0.03,0.07
14:05:31.630,-0.0,-0.0,-0.01,-4.44,-0.09,-0.11
14:05:31.637,-0.01,-0.0,-0.0,-4.51,0.02,0.1
14:05:31.645,-0.01,-0.0,-0.0,-4.48,-0.15,0.1
14:05:31.652,0.01,-0.0,0.0,-4.61,0.02,-0.04
14:05:31.659,0.0,-0.0,-0.0,-4.58,-0.08,0.03
14:05:31.667,-0.0,-0.0,-0.0,-4.4,0.08,-0.09
14:05:31.674,-0.0,-0.0,0.01,-4.59,0.01,-0.07
14:05:31.681,-0.0,-0.0,0.0,-4.62,-0.06,-0.05
14:05:31.689,-0.0,0.0,-0.0,-4.46,-0.13,0.04
14:05:31.696,-0.0,-0.0,-0.0,-4.43,-0.11,-0.08
14:05:31.703,-0.02,-0.0,-0.0,-4.3,0.02,-0.02
14:05:31.710,-0.01,-0.01,0.0,-4.53,0.11,0.05
14:05:31.718,-0.0,-0.01,0.0,-4.55,-0.02,-0.05
14:05:31.725,-0.01,-0.0,0.0,-4.57,0.11,-0.09
14:05:31.732,-0.0,-0.01,-0.0,-4.56,0.02,0.12
14:05:31.740,-0.0,-0.0,-0.0,-4.51,-0.08,0.04
14:05:31.747,-0.0,-0.0,-0.01,-4.36,0.02,0.06
14:05:31.754,-0.0,-0.0,0.0,-4.43,-0.06,0.02
14:05:31.761,-0.0,-0.01,0.0,-4.58,0.08,0.06
14:05:31.769,-0.01,-0.0,0.01,-4.56,-0.01,-0.05
14:05:31.776,-0.01,0.0,0.0,-4.61,-0.08,-0.04
14:05:31.783,-0.0,-0.0,0.0,-4.47,-0.08,0.01
14:05:31.791,0.01,-0.0,0.01,-4.52,0.11,0.13
14:05:31.798,-0.01,-0.01,-0.0,-4.46,-0.03,0.14
14:05:31.805,-0.01,-0.01,0.0,-4.41,0.05,0.06
14:05:31.812,-0.0,-0.01,-0.0,-4.69,-0.15,0.02
14:05:31.820,-0.0,-0.01,0.0,-4.56,0.09,0.1
14:05:31.827,-0.0,-0.01,-0.0,-4.43,-0.2,-0.09
14:05:31.834,-0.0,-0.01,0.0,-4.53,-0.07,-0.11
14:05:31.842,-0.0,-0.0,0.0,-4.38,0.04,-0.22
14:05:31.849,-0.0,-0.0,-0.0,-4.33,-0.11,-0.06
14:05:31.856,0.01,-0.0,-0.01,-4.54,-0.02,0.05
14:05:31.863,-0.01,-0.01,0.0,-4.55,0.04,0.02
14:05:31.871,-0.01,-0.0,-0.01,-4.47,-0.26,-0.04
14:05:31.878,-0.01,-0.01,-0.01,-4.34,0.07,-0.12
14:05:31.885,0.0,-0.0,-0.0,-4.45,0.08,-0.08
14:05:31.892,-0.0,0.0,0.01,-4.31,-0.19,0.11
14:05:31.900,0.01,-0.0,-0.0,-4.51,0.18,-0.01
14:05:31.907,-0.01,0.0,-0.0,-4.49,-0.11,-0.03
14:05:31.914,-0.0,-0.0,0.02,-4.47,0.09,-0.01
14:05:31.921,-0.0,0.0,0.02,-4.4,-0.12,-0.01
14:05:31.929,-0.01,-0.0,0.01,-4.57,0.04,0.03
14:05:31.936,0.01,-0.01,0.0,-4.44,-0.02,-0.04
14:05:31.943,-0.0,-0.01,0.0,-4.52,-0.03,-0.05
14:05:31.951,-0.0,-0.0,-0.0,-4.5,-0.05,-0.21
14:05:31.958,-0.0,-0.01,0.01,-4.38,0.13,0.06
14:05:31.965,-0.01,-0.01,0.0,-4.51,0.05,0.05
14:05:31.972,0.0,-0.01,-0.0,-4.53,-0.05,-0.09
14:05:31.980,-0.0,-0.0,-0.0,-4.5,0.08,-0.04
14:05:31.987,-0.0,-0.0,-0.0,-4.4,-0.05,-0.05
14:05:31.994,-0.0,0.0,0.0,-4.5,0.02,0.03
14:05:32.002,-0.0,-0.0,0.0,-4.5,-0.08,-0.04
14:05:32.009,-0.0,-0.01,0.01,-4.47,-0.08,0.08
14:05:32.016,-0.01,-0.0,0.0,-4.53,-0.02,-0.03
14:05:32.023,0.01,-0.0,0.0,-4.4,-0.19,-0.19
14:05:32.031,-0.01,0.0,-0.0,-4.5,0.11,0.0
14:05:32.038,-0.01,-0.0,-0.0,-4.55,0.13,-0.09
14:05:32.045,-0.0,-0.02,-0.0,-4.52,0.05,0.06
14:05:32.052,0.0,-0.01,-0.0,-4.51,0.05,0.02
14:05:32.060,-0.0,-0.02,0.0,-4.47,0.08,0.12
14:05:32.067,0.0,-0.0,0.01,-4.49,0.05,-0.19
14:05:32.074,-0.0,-0.01,-0.0,-4.45,0.11,-0.07
14:05:32.082,-0.0,-0.01,-0.01,-4.53,0.01,-0.06
14:05:32.089,-0.01,-0.01,-0.0,-4.43,-0.01,-0.01
14:05:32.097,-0.0,-0.01,0.0,-4.4,0.02,0.08
14:05:32.104,-0.0,-0.0,-0.01,-4.63,-0.05,-0.02
14:05:32.111,-0.01,-0.0,0.0,-4.73,0.11,-0.05
14:05:32.119,-0.0,-0.01,0.0,-4.47,0.07,-0.09
14:05:32.126,-0.01,-0.0,0.0,-4.41,0.02,0.08
14:05:32.133,-0.0,-0.0,-0.0,-4.37,0.09,-0.04
14:05:32.140,0.0,-0.01,0.0,-4.44,0.12,-0.11
14:05:32.148,-0.0,-0.01,-0.0,-4.51,0.08,0.11
14:05:32.155,-0.02,-0.01,0.01,-4.41,0.02,-0.03
14:05:32.162,-0.01,-0.0,0.01,-4.4,0.04,-0.1
14:05:32.170,-0.0,-0.0,-0.01,-4.6,-0.19,0.11
14:05:32.177,-0.0,-0.01,0.0,-4.52,-0.07,-0.16
14:05:32.184,-0.0,-0.0,0.0,-4.43,0.08,-0.04
14:05:32.191,-0.0,-0.0,-0.01,-4.47,-0.1,0.05
14:05:32.199,-0.0,-0.01,0.0,-4.62,0.1,-0.01
14:05:32.206,-0.0,-0.01,-0.01,-4.53,-0.02,0.08
14:05:32.213,-0.0,-0.01,-0.01,-4.44,-0.11,0.07
14:05:32.221,-0.0,-0.0,0.0,-4.5,0.05,-0.13
14:05:32.228,0.0,-0.0,0.0,-4.42,-0.05,0.04
14:05:32.235,-0.01,0.0,-0.0,-4.49,-0.15,-0.1
14:05:32.243,-0.01,-0.0,-0.01,-4.57,-0.0,-0.02
14:05:32.250,-0.01,-0.0,0.01,-4.51,-0.02,-0.04
14:05:32.257,-0.01,-0.0,-0.01,-4.46,0.2,-0.01
14:05:32.264,-0.01,-0.0,0.01,-4.59,-0.05,-0.05
14:05:32.272,-0.0,-0.02,0.0,-4.48,-0.05,-0.01
14:05:32.279,-0.0,0.01,-0.01,-4.43,0.09,-0.02
14:05:32.286,-0.0,-0.0,0.0,-4.61,0.15,0.12
14:05:32.294,-0.01,-0.0,-0.01,-4.35,-0.06,0.09
14:05:32.301,-0.0,-0.0,0.0,-4.46,-0.03,-0.09
14:05:32.308,0.0,-0.01,-0.01,-4.43,0.11,-0.13
14:05:32.316,-0.0,-0.01,-0.01,-4.34,-0.02,0.11
14:05:32.323,-0.0,-0.0,0.0,-4.42,0.01,-0.03
14:05:32.330,0.01,-0.02,0.0,-4.47,-0.11,-0.05
14:05:32.338,-0.0,-0.01,-0.01,-4.51,-0.01,0.02
14:05:32.345,0.01,-0.0,-0.0,-4.47,-0.08,-0.03
14:05:32.352,-0.0,-0.0,0.01,-4.47,-0.07,-0.01
14:05:32.359,-0.0,-0.0,0.0,-4.42,-0.02,0.0
14:05:32.367,-0.0,0.0,-0.0,-4.53,-0.06,-0.07
14:05:32.374,-0.0,-0.0,0.01,-4.44,-0.02,-0.12
14:05:32.381,-0.0,-0.01,-0.0,-4.47,0.08,0.01
14:05:32.389,-0.01,-0.01,-0.0,-4.38,-0.11,0.1
14:05:32.396,-0.0,-0.0,-0.01,-4.5,-0.03,0.03
14:05:32.403,-0.0,-0.0,0.0,-4.54,0.14,-0.01
14:05:32.410,0.0,-0.0,0.02,-4.46,0.02,-0.07
14:05:32.418,-0.01,-0.0,-0.0,-4.37,0.13,0.11
14:05:32.425,-0.0,-0.0,-0.0,-4.44,-0.12,-0.01
14:05:32.432,-0.01,-0.01,0.02,-4.47,-0.01,0.04
14:05:32.439,-0.0,-0.01,0.0,-4.47,-0.01,-0.01
14:05:32.447,-0.0,-0.0,-0.01,-4.41,-0.09,0.11
14:05:32.454,0.0,0.0,-0.0,-4.4,-0.09,0.01
14:05:32.461,0.0,-0.01,0.0,-4.34,-0.05,-0.14
14:05:32.469,-0.0,-0.01,-0.0,-4.57,0.11,0.07
14:05:32.476,0.01,-0.01,-0.01,-4.45,0.01,0.08
14:05:32.483,-0.01,-0.01,0.0,-4.45,-0.03,0.02
14:05:32.490,0.01,-0.02,-0.0,-4.47,-0.14,-0.07
14:05:32.498,-0.0,-0.0,0.01,-4.4,0.04,-0.11
14:05:32.505,0.0,-0.0,0.0,-4.56,0.18,0.08
14:05:32.512,0.01,-0.0,0.0,-4.41,-0.06,0.02
14:05:32.519,-0.0,-0.0,0.01,-4.47,0.08,0.01
14:05:32.527,-0.0,-0.01,0.0,-4.4,-0.05,0.09
14:05:32.534,-0.0,-0.0,0.0,-4.45,-0.11,0.0
14:05:32.541,-0.0,0.0,0.0,-4.54,-0.14,-0.05
14:05:32.548,0.0,-0.01,-0.01,-4.5,0.01,-0.05
14:05:32.556,-0.01,-0.02,0.0,-4.43,-0.03,-0.01
14:05:32.563,-0.0,-0.02,0.0,-4.44,0.07,-0.18
14:05:32.570,-0.0,-0.01,-0.0,-4.51,-0.06,-0.12
14:05:32.578,-0.01,-0.0,0.02,-4.5,0.07,-0.05
14:05:32.585,-0.01,-0.0,0.0,-4.33,-0.11,-0.01
14:05:32.592,-0.01,-0.01,0.0,-4.62,0.07,-0.11
14:05:32.600,-0.01,0.0,-0.0,-4.37,0.09,-0.08
14:05:32.607,-0.0,-0.0,0.0,-4.49,0.09,-0.08
14:05:32.614,-0.0,-0.0,-0.01,-4.4,-0.14,-0.01
14:05:32.622,-0.01,-0.01,-0.0,-4.4,-0.02,-0.21
14:05:32.629,0.0,-0.01,-0.0,-4.69,-0.05,0.11
14:05:32.636,-0.01,-0.0,-0.0,-4.55,0.01,-0.12
14:05:32.643,-0.01,-0.01,0.0,-4.41,-0.01,0.01
14:05:32.651,0.0,0.0,-0.01,-4.47,-0.11,-0.01
14:05:32.658,-0.01,-0.01,0.02,-4.52,0.23,0.11
14:05:32.665,0.0,-0.01,-0.0,-4.48,-0.09,-0.01
14:05:32.673,0.0,-0.0,-0.0,-4.37,-0.05,0.01
14:05:32.680,-0.01,-0.0,-0.01,-4.5,-0.02,0.02
14:05:32.687,0.0,-0.01,-0.0,-4.51,-0.1,-0.27
14:05:32.695,-0.01,0.0,-0.0,-4.53,-0.13,-0.1
14:05:32.702,0.0,-0.0,-0.0,-4.36,0.12,-0.05
14:05:32.709,0.0,-0.01,0.0,-4.33,0.02,-0.06
14:05:32.716,-0.0,-0.0,0.01,-4.44,0.05,0.06
14:05:32.724,-0.0,-0.0,-0.01,-4.42,0.07,0.18
14:05:32.731,-0.0,0.0,0.0,-4.4,0.06,0.01
14:05:32.738,-0.0,-0.0,0.02,-4.5,0.08,-0.08
14:05:32.746,0.0,-0.0,-0.01,-4.59,0.08,-0.07
14:05:32.753,-0.0,0.0,0.01,-4.51,0.05,-0.04
14:05:32.760,0.0,-0.02,-0.0,-4.37,-0.11,-0.17
14:05:32.767,-0.0,-0.01,-0.0,-4.53,-0.06,0.01
14:05:32.775,-0.01,-0.0,0.01,-4.5,0.06,-0.01
14:05:32.782,-0.0,0.0,0.0,-4.61,0.05,0.05
14:05:32.789,0.0,-0.0,0.01,-4.52,0.04,0.05
14:05:32.797,0.01,-0.01,0.0,-4.47,0.08,0.06
14:05:32.804,-0.0,0.0,0.0,-4.45,-0.03,-0.08
14:05:32.811,-0.01,-0.0,-0.01,-4.4,-0.03,-0.04
14:05:32.818,0.01,-0.01,0.01,-4.4,-0.1,0.21
14:05:32.826,-0.0,-0.0,-0.0,-4.64,-0.11,-0.01
14:05:32.833,-0.0,-0.0,0.01,-4.56,-0.01,0.11
14:05:32.840,-0.01,0.01,0.0,-4.56,0.01,-0.02
14:05:32.848,0.0,-0.0,-0.0,-4.45,0.04,-0.02
14:05:32.855,-0.0,-0.01,-0.01,-4.46,0.04,-0.16
14:05:32.862,-0.0,-0.01,0.02,-4.44,0.01,-0.04
14:05:32.869,-0.0,-0.01,0.01,-4.53,0.05,-0.14
14:05:32.877,-0.0,-0.0,0.01,-4.44,-0.04,-0.01
14:05:32.884,0.0,-0.0,0.01,-4.54,0.05,0.2
14:05:32.891,-0.01,-0.0,-0.0,-4.52,-0.0,-0.04
14:05:32.899,-0.01,0.01,0.01,-4.53,0.06,0.09
14:05:32.906,-0.0,-0.01,0.0,-4.48,-0.08,-0.08
14:05:32.913,-0.0,-0.0,0.0,-4.48,0.01,-0.01
14:05:32.920,-0.02,-0.0,-0.01,-4.5,-0.02,-0.07
14:05:32.928,-0.0,-0.01,0.0,-4.44,0.11,0.04
14:05:32.935,-0.01,-0.01,0.0,-4.55,0.11,-0.04
14:05:32.942,-0.01,-0.01,0.01,-4.56,0.17,-0.02
14:05:32.950,-0.01,0.0,0.0,-4.42,-0.05,-0.05
14:05:32.957,-0.01,-0.0,-0.01,-4.47,0.06,0.1
14:05:32.964,-0.01,0.01,0.01,-4.4,-0.07,0.17
14:05:32.971,-0.0,-0.01,-0.01,-4.44,0.13,-0.01
14:05:32.979,-0.0,-0.01,-0.0,-4.44,-0.18,-0.06
14:05:32.986,-0.01,-0.0,0.0,-4.39,0.23,-0.11
14:05:32.993,-0.0,-0.0,0.0,-4.6,-0.03,-0.02
14:05:33.001,-0.01,-0.01,-0.0,-4.47,-0.02,-0.01
14:05:33.008,-0.0,-0.01,-0.0,-4.5,-0.13,-0.03
14:05:33.015,-0.0,-0.0,-0.01,-4.5,0.16,0.13
14:05:33.022,-0.01,-0.01,0.0,-4.44,-0.08,-0.04
14:05:33.030,0.0,-0.01,-0.0,-4.37,-0.06,-0.11
14:05:33.037,-0.0,-0.0,0.01,-4.51,-0.0,-0.03
14:05:33.044,-0.0,0.0,0.01,-4.4,0.04,0.0
14:05:33.052,-0.0,-0.01,-0.01,-4.49,0.11,-0.15
14:05:33.059,0.0,0.01,0.0,-4.41,0.07,-0.09
14:05:33.066,-0.02,-0.01,0.02,-4.48,-0.01,-0.07
14:05:33.073,-0.0,-0.01,0.0,-4.41,-0.12,-0.11
14:05:33.081,-0.0,-0.01,0.01,-4.37,0.18,0.01
14:05:33.088,-0.01,-0.0,-0.01,-4.5,0.03,0.02
14:05:33.096,-0.0,-0.01,0.01,-4.5,0.05,0.11
14:05:33.103,-0.0,-0.0,0.0,-4.49,0.05,0.03
14:05:33.110,-0.0,-0.01,0.01,-4.49,-0.02,-0.01
14:05:33.117,-0.01,-0.0,0.0,-4.6,-0.1,-0.14
14:05:33.125,0.0,0.0,-0.0,-4.43,-0.05,0.01
14:05:33.132,-0.0,-0.01,-0.0,-4.48,0.14,-0.09
14:05:33.139,-0.0,-0.0,0.02,-4.55,-0.05,-0.06
14:05:33.147,-0.0,-0.0,0.0,-4.5,-0.08,0.04
14:05:33.154,-0.0,-0.02,0.01,-4.42,-0.1,0.0
14:05:33.161,-0.01,-0.01,-0.0,-4.43,-0.11,-0.05
14:05:33.169,-0.0,-0.0,-0.01,-4.44,-0.01,0.04
14:05:33.176,-0.01,-0.0,-0.0,-4.49,-0.05,-0.04
14:05:33.183,0.0,-0.01,-0.0,-4.48,0.12,-0.08
14:05:33.191,-0.0,-0.01,-0.01,-4.41,-0.06,-0.11
14:05:33.198,-0.01,-0.0,0.02,-4.45,-0.0,0.02
14:05:33.205,-0.01,-0.01,0.0,-4.56,-0.06,0.08
14:05:33.212,-0.0,-0.01,0.01,-4.48,-0.13,0.02
14:05:33.220,-0.0,-0.0,0.0,-4.46,0.09,0.02
14:05:33.227,-0.0,-0.01,0.0,-4.56,-0.06,-0.05
14:05:33.234,-0.01,-0.0,-0.01,-4.56,0.07,0.04
14:05:33.242,0.0,-0.0,0.0,-4.5,-0.03,-0.04
14:05:33.249,-0.0,-0.0,0.0,-4.55,0.05,-0.01
14:05:33.256,-0.0,-0.0,-0.01,-4.52,0.02,-0.02
14:05:33.263,-0.0,-0.0,-0.0,-4.5,-0.08,0.01
14:05:33.271,-0.0,0.01,0.01,-4.5,-0.16,-0.09
14:05:33.278,-0.01,-0.01,0.0,-4.51,0.08,-0.06
14:05:33.285,-0.0,-0.0,-0.0,-4.43,-0.05,-0.09
14:05:33.293,-0.01,-0.01,-0.01,-4.52,-0.2,-0.01
14:05:33.300,-0.0,-0.0,-0.01,-4.59,-0.08,-0.15
14:05:33.307,0.0,-0.01,0.0,-4.47,-0.07,0.12
14:05:33.314,-0.01,-0.01,0.02,-4.56,0.05,0.1
14:05:33.322,-0.01,-0.0,0.0,-4.63,0.03,-0.28
14:05:33.329,-0.0,-0.01,-0.0,-4.41,0.01,0.13
14:05:33.336,-0.0,-0.0,0.01,-4.44,0.1,0.04
14:05:33.343,-0.0,-0.0,-0.0,-4.54,-0.03,-0.03
14:05:33.351,0.0,0.0,0.01,-4.5,-0.03,0.01
14:05:33.358,-0.02,-0.0,0.01,-4.49,0.02,0.07
14:05:33.365,0.0,-0.0,0.0,-4.56,-0.17,0.14
14:05:33.373,0.01,-0.0,-0.0,-4.4,0.02,-0.06
14:05:33.380,-0.01,-0.0,-0.0,-4.59,0.02,-0.08
14:05:33.387,-0.01,-0.0,-0.01,-4.41,0.02,0.11
14:05:33.394,-0.0,-0.0,-0.0,-4.44,0.07,-0.17
14:05:33.402,-0.0,-0.01,0.02,-4.47,-0.02,-0.17
14:05:33.409,0.0,-0.0,0.01,-4.44,0.06,-0.14
14:05:33.416,-0.0,0.01,0.0,-4.42,-0.07,0.05
14:05:33.423,-0.01,-0.0,0.01,-4.5,0.12,-0.08
14:05:33.431,-0.01,-0.01,0.0,-4.5,-0.08,-0.11
14:05:33.438,-0.01,-0.02,0.0,-4.47,-0.03,-0.09
14:05:33.445,-0.0,-0.01,-0.01,-4.63,0.06,-0.05
14:05:33.453,-0.0,-0.0,-0.0,-4.37,-0.08,-0.01
14:05:33.460,-0.01,0.0,-0.01,-4.44,-0.04,-0.08
14:05:33.467,-0.0,-0.0,-0.0,-4.41,-0.02,-0.05
14:05:33.475,0.0,-0.0,0.0,-4.37,0.17,0.03
14:05:33.482,-0.0,-0.0,0.01,-4.44,0.08,-0.01
14:05:33.489,-0.0,-0.01,-0.0,-4.47,-0.0,-0.05
14:05:33.496,0.01,-0.0,-0.0,-4.4,-0.03,0.06
14:05:33.504,-0.0,-0.0,-0.01,-4.56,0.02,-0.05
14:05:33.511,0.0,-0.01,-0.0,-4.44,-0.08,0.02
14:05:33.518,0.01,-0.01,0.0,-4.44,0.03,-0.05
14:05:33.526,-0.0,-0.01,-0.0,-4.5,-0.04,0.02
14:05:33.533,-0.01,-0.0,0.0,-4.46,-0.1,0.0
14:05:33.540,0.01,-0.0,0.02,-4.59,-0.01,0.03
14:05:33.547,-0.0,-0.01,-0.0,-4.6,-0.11,-0.24
14:05:33.555,-0.01,-0.01,-0.01,-4.41,-0.05,-0.01
14:05:33.562,-0.0,-0.0,-0.01,-4.47,-0.11,-0.01
14:05:33.569,-0.0,-0.01,-0.0,-4.24,0.05,0.04
14:05:33.577,-0.0,-0.0,0.01,-4.46,0.03,-0.03
14:05:33.584,-0.0,-0.0,0.01,-4.4,-0.11,-0.05
14:05:33.591,-0.0,-0.01,0.0,-4.42,0.05,0.18
14:05:33.599,-0.0,-0.0,-0.0,-4.36,-0.0,-0.1
14:05:33.606,-0.0,-0.0,-0.0,-4.5,-0.08,-0.01
14:05:33.614,-0.01,-0.0,-0.0,-4.44,-0.0,0.05
14:05:33.621,-0.0,-0.01,0.0,-4.56,-0.1,0.02
14:05:33.628,-0.01,-0.02,-0.0,-4.44,-0.1,-0.02
14:05:33.635,-0.01,-0.01,-0.0,-4.39,-0.05,0.07
14:05:33.643,-0.0,-0.01,0.0,-4.44,-0.05,-0.11
14:05:33.650,-0.0,-0.0,0.01,-4.41,-0.02,-0.09
14:05:33.657,-0.0,-0.01,-0.0,-4.52,0.04,-0.12
14:05:33.665,0.01,-0.0,0.0,-4.44,0.09,-0.14
14:05:33.672,-0.0,-0.01,-0.01,-4.53,0.09,-0.05
14:05:33.679,-0.01,0.0,0.01,-4.59,0.01,0.13
14:05:33.687,-0.0,-0.0,0.0,-4.47,-0.06,0.06
14:05:33.694,0.0,-0.0,-0.0,-4.47,0.14,-0.02
14:05:33.701,-0.0,-0.0,0.0,-4.42,-0.0,-0.03
14:05:33.708,0.01,-0.01,-0.0,-4.54,0.15,0.02
14:05:33.716,-0.0,-0.0,-0.0,-4.46,0.03,-0.05
14:05:33.723,-0.0,-0.01,-0.0,-4.44,0.02,-0.11
14:05:33.730,-0.01,-0.01,-0.01,-4.4,-0.03,0.07
14:05:33.738,0.01,-0.0,0.0,-4.39,0.05,0.18
14:05:33.745,-0.0,-0.0,-0.01,-4.53,0.05,-0.08
14:05:33.752,-0.0,0.01,-0.0,-4.55,-0.03,-0.17
14:05:33.759,0.0,-0.0,0.0,-4.53,-0.09,-0.01
14:05:33.767,0.0,0.01,-0.01,-4.49,0.07,0.03
14:05:33.774,-0.01,-0.01,-0.0,-4.5,-0.02,-0.09
14:05:33.781,-0.01,-0.01,0.0,-4.4,0.14,-0.01
14:05:33.789,-0.0,-0.01,-0.0,-4.47,-0.02,-0.01
14:05:33.796,-0.0,-0.01,-0.0,-4.51,-0.06,-0.03
14:05:33.803,-0.0,-0.01,-0.0,-4.47,0.09,0.09
14:05:33.810,-0.0,-0.01,-0.0,-4.43,-0.06,-0.18
14:05:33.818,-0.01,-0.0,0.0,-4.53,0.11,0.02
14:05:33.825,-0.0,-0.01,-0.0,-4.49,-0.13,-0.11
14:05:33.832,0.01,-0.01,-0.0,-4.4,-0.02,0.15
14:05:33.840,-0.0,-0.0,-0.01,-4.35,0.1,-0.07
14:05:33.847,0.02,0.0,0.0,-4.46,0.06,-0.11
14:05:33.854,-0.01,0.0,0.0,-4.59,0.14,-0.06
14:05:33.862,0.0,-0.0,-0.0,-4.54,-0.02,0.11
14:05:33.869,-0.01,-0.0,0.0,-4.4,0.14,-0.08
14:05:33.876,-0.0,-0.0,0.0,-4.48,-0.01,0.04
14:05:33.883,-0.0,-0.0,0.0,-4.5,-0.11,0.05
14:05:33.891,0.01,-0.01,0.0,-4.5,-0.07,-0.08
14:05:33.898,0.0,-0.01,0.0,-4.44,-0.03,0.14
14:05:33.905,0.01,-0.0,-0.0,-4.5,-0.0,-0.03
14:05:33.913,-0.0,-0.0,0.01,-4.53,0.04,0.08
14:05:33.920,0.0,0.0,0.0,-4.39,0.17,-0.05
14:05:33.927,-0.0,-0.01,-0.0,-4.47,0.07,0.01
14:05:33.934,-0.0,0.0,-0.0,-4.44,-0.12,-0.12
14:05:33.942,-0.01,0.0,-0.01,-4.52,-0.08,0.05
14:05:33.949,0.02,-0.02,-0.01,-4.31,-0.06,0.02
14:05:33.956,-0.0,-0.01,0.01,-4.42,0.12,0.02
14:05:33.964,0.0,0.0,-0.0,-4.42,0.08,0.05
14:05:33.971,-0.0,0.01,-0.01,-4.56,-0.02,-0.1
14:05:33.978,-0.01,-0.0,-0.01,-4.5,-0.14,0.05
14:05:33.985,-0.0,-0.0,-0.0,-4.51,0.02,-0.06
14:05:33.993,-0.0,-0.0,0.0,-4.44,0.07,-0.08
14:05:34.000,-0.0,0.0,0.0,-4.5,0.05,0.05
14:05:34.007,0.0,-0.01,0.01,-4.45,0.03,-0.09
14:05:34.014,-0.01,-0.0,-0.01,-4.47,0.03,0.02
14:05:34.022,-0.01,-0.0,0.0,-4.56,0.18,-0.03
14:05:34.029,-0.01,-0.01,-0.01,-4.53,-0.17,0.0
14:05:34.036,-0.0,-0.02,0.01,-4.46,-0.1,-0.01
14:05:34.044,-0.0,-0.01,0.0,-4.31,-0.07,0.07
14:05:34.051,-0.01,0.0,-0.01,-4.39,-0.09,-0.04
14:05:34.058,0.0,-0.0,0.01,-4.38,-0.02,0.08
14:05:34.065,0.0,-0.0,0.0,-4.51,-0.04,0.1
14:05:34.073,-0.0,0.01,-0.0,-4.56,-0.08,0.04
14:05:34.080,0.0,-0.01,-0.0,-4.44,-0.05,-0.09
14:05:34.088,-0.0,-0.0,0.0,-4.54,0.02,0.03
14:05:34.095,0.0,-0.0,0.02,-4.36,-0.07,0.0
14:05:34.102,-0.01,-0.0,-0.0,-4.48,-0.07,0.05
14:05:34.109,0.01,0.01,0.0,-4.35,0.05,-0.11
14:05:34.117,0.0,-0.0,-0.0,-4.4,0.03,-0.1
14:05:34.124,-0.0,-0.0,-0.0,-4.61,-0.0,-0.08
14:05:34.131,0.0,0.01,0.0,-4.5,-0.19,-0.12
14:05:34.139,-0.0,-0.01,0.0,-4.51,-0.08,0.09
14:05:34.146,-0.0,-0.01,0.01,-4.45,0.03,0.15
14:05:34.153,-0.0,0.0,0.01,-4.57,0.1,0.03
14:05:34.160,-0.0,-0.01,0.0,-4.37,0.11,-0.11
14:05:34.168,-0.0,-0.0,-0.01,-4.4,-0.02,-0.05
14:05:34.175,-0.01,-0.01,-0.0,-4.53,0.19,-0.08
14:05:34.182,-0.0,-0.0,-0.0,-4.44,-0.08,-0.09
14:05:34.190,-0.01,-0.01,0.0,-4.5,0.08,0.03
14:05:34.197,-0.01,-0.0,0.0,-4.56,0.11,0.05
14:05:34.204,0.0,-0.0,0.0,-4.56,0.17,0.0
14:05:34.211,0.01,-0.0,0.0,-4.46,0.01,0.06
14:05:34.219,-0.0,-0.0,0.0,-4.46,-0.08,0.08
14:05:34.226,-0.0,-0.01,-0.01,-4.51,-0.05,-0.1
14:05:34.233,-0.01,-0.02,-0.01,-4.53,-0.15,-0.07
14:05:34.241,-0.01,-0.01,-0.0,-4.47,0.2,-0.11
14:05:34.248,-0.01,-0.0,-0.0,-4.44,-0.02,-0.01
14:05:34.255,-0.02,0.01,-0.01,-4.4,0.01,0.06
14:05:34.262,-0.0,-0.0,0.0,-4.55,0.14,-0.16
14:05:34.270,0.02,-0.0,-0.01,-4.56,0.03,0.13
14:05:34.277,-0.0,-0.01,0.0,-4.57,-0.11,-0.02
14:05:34.284,-0.0,-0.01,-0.0,-4.56,0.11,-0.09
14:05:34.291,-0.0,-0.0,0.0,-4.44,-0.01,0.1
14:05:34.299,-0.0,-0.01,-0.0,-4.48,0.1,0.0
14:05:34.306,-0.01,-0.01,0.01,-4.45,0.09,-0.14
14:05:34.313,-0.02,-0.0,0.01,-4.35,0.1,0.08
14:05:34.321,-0.0,-0.0,0.0,-4.57,-0.02,-0.08
14:05:34.328,-0.0,-0.01,-0.01,-4.58,0.02,-0.24
14:05:34.335,-0.01,-0.0,0.02,-4.48,-0.19,0.15
14:05:34.343,-0.0,-0.01,-0.0,-4.53,0.03,-0.01
14:05:34.350,-0.01,-0.01,-0.0,-4.48,-0.0,-0.18
14:05:34.357,-0.01,-0.01,-0.0,-4.55,-0.24,-0.05
14:05:34.364,0.0,-0.01,-0.0,-4.5,-0.06,0.06
14:05:34.372,0.0,-0.01,-0.01,-4.54,0.17,-0.16
14:05:34.379,-0.0,-0.0,0.0,-4.45,-0.02,-0.1
14:05:34.386,-0.0,-0.01,0.01,-4.48,-0.0,0.02
14:05:34.394,-0.0,-0.01,0.01,-4.46,-0.12,0.15
14:05:34.401,-0.01,-0.0,-0.0,-4.39,-0.13,0.01
14:05:34.408,-0.0,-0.0,0.0,-4.34,0.02,0.1
14:05:34.416,-0.0,-0.0,-0.01,-4.6,-0.1,0.13
14:05:34.423,-0.0,-0.01,0.01,-4.63,0.19,-0.04
14:05:34.430,-0.0,-0.0,-0.01,-4.63,0.05,0.11
14:05:34.437,0.0,-0.01,0.0,-4.33,-0.08,-0.08
14:05:34.445,-0.0,-0.0,-0.0,-4.52,-0.04,0.05
14:05:34.452,-0.0,-0.01,-0.0,-4.47,-0.05,-0.01
14:05:34.459,-0.01,-0.0,0.0,-4.54,-0.08,-0.02
14:05:34.467,-0.0,-0.01,0.0,-4.55,0.05,-0.01
14:05:34.474,-0.01,-0.0,0.0,-4.47,0.08,0.02
14:05:34.481,-0.0,-0.0,0.01,-4.43,-0.01,0.06
14:05:34.488,-0.0,0.01,0.0,-4.52,0.03,-0.03
14:05:34.496,-0.0,-0.01,0.0,-4.46,-0.03,-0.04
14:05:34.503,-0.01,-0.0,0.01,-4.38,0.04,-0.08
14:05:34.511,-0.01,-0.0,-0.01,-4.37,-0.07,-0.06
14:05:34.518,-0.0,-0.01,0.0,-4.44,-0.01,0.03
14:05:34.525,-0.0,-0.0,-0.0,-4.41,0.07,0.11
14:05:34.532,-0.0,-0.0,-0.01,-4.64,-0.02,0.07
14:05:34.540,-0.01,-0.01,0.0,-4.56,-0.0,-0.05
14:05:34.547,-0.0,-0.01,-0.0,-4.64,-0.06,-0.15
14:05:34.554,0.0,-0.02,0.0,-4.5,0.11,-0.18
14:05:34.561,0.01,-0.0,-0.0,-4.4,0.08,0.07
14:05:34.568,-0.0,-0.01,-0.0,-4.48,0.05,-0.08
14:05:34.576,0.0,-0.0,-0.0,-4.54,-0.0,-0.04
14:05:34.583,-0.0,-0.0,-0.0,-4.44,0.04,-0.04
14:05:34.590,-0.01,0.0,0.01,-4.41,0.14,0.05
14:05:34.598,-0.01,-0.01,-0.0,-4.37,0.09,-0.01
14:05:34.605,-0.0,-0.01,-0.0,-4.4,0.02,0.11
14:05:34.612,-0.0,0.0,0.01,-4.49,0.03,0.11
14:05:34.619,-0.0,-0.0,-0.01,-4.47,0.05,0.09
14:05:34.627,-0.0,-0.01,0.01,-4.49,0.09,-0.04
14:05:34.634,-0.0,-0.0,0.0,-4.55,-0.02,-0.03
14:05:34.641,-0.0,-0.0,0.0,-4.3,-0.07,-0.05
14:05:34.649,0.0,-0.0,0.01,-4.47,-0.17,-0.01
14:05:34.656,-0.0,-0.01,0.0,-4.53,-0.13,-0.03
14:05:34.663,-0.01,-0.0,0.01,-4.39,-0.03,0.15
14:05:34.670,-0.0,-0.01,-0.0,-4.53,-0.03,-0.1
14:05:34.678,-0.01,-0.01,-0.0,-4.52,-0.02,-0.07
14:05:34.685,-0.0,-0.01,0.0,-4.55,-0.08,-0.01
14:05:34.692,-0.01,-0.01,0.0,-4.46,-0.18,-0.11
14:05:34.700,-0.01,-0.0,0.0,-4.4,0.09,-0.14
14:05:34.707,-0.0,-0.01,-0.0,-4.54,-0.02,-0.1
14:05:34.714,-0.0,-0.01,0.0,-4.5,0.02,-0.11
14:05:34.721,0.02,-0.0,-0.0,-4.47,0.02,0.02
14:05:34.729,-0.0,-0.0,0.0,-4.47,0.02,-0.11
14:05:34.736,0.0,-0.0,-0.0,-4.48,0.15,0.03
14:05:34.743,-0.01,-0.0,-0.0,-4.53,-0.15,-0.01
14:05:34.751,-0.01,-0.0,0.01,-4.47,-0.02,0.11
14:05:34.758,-0.0,-0.01,0.0,-4.36,0.06,0.01
14:05:34.765,-0.01,-0.0,-0.0,-4.44,-0.06,0.09
14:05:34.772,-0.0,-0.01,-0.0,-4.51,-0.05,-0.03
14:05:34.780,-0.01,-0.02,-0.0,-4.63,0.08,-0.16
14:05:34.787,-0.01,-0.0,-0.0,-4.47,-0.03,-0.1
14:05:34.794,-0.01,-0.0,0.0,-4.36,0.05,-0.08
14:05:34.802,-0.0,-0.0,-0.01,-4.43,-0.09,0.01
14:05:34.809,-0.0,-0.01,0.01,-4.53,0.05,-0.03
14:05:34.816,-0.01,-0.02,0.0,-4.52,-0.02,-0.24
14:05:34.823,-0.0,-0.01,0.02,-4.44,-0.0,-0.01
14:05:34.831,0.0,-0.01,0.0,-4.5,-0.12,-0.05
14:05:34.838,-0.02,-0.01,-0.01,-4.39,-0.21,-0.11
14:05:34.845,-0.01,-0.02,-0.01,-4.41,-0.06,-0.13
14:05:34.852,0.0,0.01,-0.0,-4.66,-0.02,0.04
14:05:34.860,-0.0,0.0,-0.0,-4.5,-0.08,-0.06
14:05:34.867,-0.0,-0.01,0.01,-4.6,-0.04,0.08
14:05:34.874,-0.0,-0.0,0.0,-4.57,-0.05,-0.03
14:05:34.882,-0.0,-0.0,0.0,-4.53,0.09,-0.23
14:05:34.889,-0.0,-0.01,-0.01,-4.6,-0.11,-0.05
14:05:34.896,0.0,-0.01,-0.0,-4.32,0.01,-0.08
14:05:34.904,-0.01,-0.01,-0.01,-4.52,0.08,0.06
14:05:34.911,-0.0,-0.01,-0.0,-4.52,-0.13,0.01
14:05:34.918,-0.01,-0.0,-0.0,-4.51,0.06,-0.05
14:05:34.926,-0.0,0.0,0.0,-4.43,0.01,-0.27
14:05:34.933,0.01,-0.0,-0.01,-4.63,0.05,-0.12
14:05:34.940,-0.0,0.01,-0.0,-4.56,-0.11,0.07
14:05:34.948,0.0,-0.0,-0.0,-4.56,0.11,0.04
14:05:34.955,-0.0,-0.01,-0.01,-4.51,-0.07,0.06
14:05:34.962,-0.0,-0.01,-0.01,-4.5,-0.05,0.02
14:05:34.969,-0.0,-0.01,0.01,-4.48,-0.02,-0.11
14:05:34.977,-0.0,-0.0,-0.0,-4.47,0.11,-0.07
14:05:34.984,-0.0,-0.0,-0.0,-4.43,0.12,-0.11
14:05:34.991,-0.0,-0.0,-0.0,-4.46,-0.08,-0.14
14:05:34.998,-0.01,0.0,0.01,-4.47,-0.06,-0.09
14:05:35.006,-0.0,-0.0,0.0,-4.44,-0.2,0.0
14:05:35.013,-0.02,-0.0,0.01,-4.44,-0.07,-0.08
14:05:35.020,-0.01,-0.0,-0.01,-4.55,0.15,0.04
14:05:35.028,-0.0,-0.01,-0.0,-4.37,0.04,-0.09
14:05:35.035,-0.02,-0.0,-0.01,-4.45,-0.09,-0.01
14:05:35.042,-0.01,-0.01,0.01,-4.52,-0.1,0.04
14:05:35.049,-0.0,0.0,-0.01,-4.53,-0.17,0.06
14:05:35.057,-0.01,-0.01,-0.0,-4.52,-0.03,0.05
14:05:35.064,0.0,-0.01,0.0,-4.55,0.02,0.08
14:05:35.071,-0.0,-0.0,-0.0,-4.38,-0.0,0.09
14:05:35.079,-0.01,-0.0,-0.01,-4.67,-0.13,-0.08
14:05:35.086,0.0,-0.01,-0.01,-4.64,0.09,0.07
14:05:35.093,0.0,-0.02,0.0,-4.36,0.08,-0.01
14:05:35.101,-0.0,-0.01,-0.0,-4.43,-0.11,0.11
14:05:35.108,-0.0,-0.01,0.0,-4.57,-0.0,-0.01
14:05:35.115,0.0,-0.01,-0.0,-4.37,0.11,-0.08
14:05:35.123,-0.0,-0.01,0.0,-4.45,-0.05,0.04
14:05:35.130,-0.0,-0.0,0.0,-4.53,-0.13,-0.03
14:05:35.137,-0.01,-0.01,-0.0,-4.54,0.06,-0.08
14:05:35.144,-0.0,-0.01,-0.0,-4.53,-0.02,0.05
14:05:35.152,-0.0,-0.01,-0.0,-4.41,0.02,-0.11
14:05:35.159,0.01,-0.0,0.0,-4.55,0.04,-0.05
14:05:35.166,-0.01,-0.01,-0.0,-4.44,0.15,-0.11
14:05:35.174,-0.0,-0.01,-0.0,-4.42,0.17,0.07
14:05:35.181,-0.0,0.01,-0.0,-4.45,0.06,0.02
14:05:35.188,-0.01,-0.0,0.0,-4.34,-0.2,-0.06
14:05:35.195,-0.0,-0.0,-0.01,-4.5,0.05,0.06
14:05:35.203,-0.01,-0.0,0.0,-4.43,-0.09,0.03
14:05:35.210,-0.0,-0.01,-0.0,-4.48,0.01,-0.09
14:05:35.217,-0.0,-0.0,-0.0,-4.51,0.02,-0.04
14:05:35.225,-0.01,-0.0,0.01,-4.6,-0.04,0.0
14:05:35.232,-0.0,-0.0,0.01,-4.63,-0.0,0.0
14:05:35.239,-0.0,-0.01,-0.0,-4.52,-0.01,0.02
14:05:35.246,-0.0,-0.0,0.0,-4.37,0.13,-0.04
14:05:35.254,-0.0,0.0,0.0,-4.57,-0.02,0.01
14:05:35.261,-0.02,-0.01,0.02,-4.44,0.02,0.0
14:05:35.268,-0.0,-0.0,-0.0,-4.58,0.05,-0.04
14:05:35.275,0.0,-0.0,-0.01,-4.37,-0.08,-0.03
14:05:35.283,-0.01,-0.0,-0.01,-4.37,0.04,-0.06
14:05:35.290,-0.0,-0.0,0.0,-4.55,-0.11,-0.15
14:05:35.297,-0.01,-0.0,-0.01,-4.41,0.08,-0.08
14:05:35.305,-0.01,-0.02,0.0,-4.44,-0.0,-0.05
14:05:35.312,-0.0,-0.01,0.0,-4.55,-0.11,-0.13
14:05:35.319,-0.0,-0.02,0.01,-4.61,-0.04,0.07
14:05:35.326,0.01,-0.0,-0.0,-4.6,-0.14,0.05
14:05:35.334,-0.01,-0.01,-0.0,-4.5,0.11,0.07
14:05:35.341,-0.0,-0.01,0.02,-4.47,0.02,-0.19
14:05:35.348,-0.0,-0.0,0.0,-4.49,-0.15,-0.03
14:05:35.355,-0.01,-0.01,-0.0,-4.45,0.15,0.08
14:05:35.363,-0.01,-0.01,-0.0,-4.4,0.09,-0.14
14:05:35.370,-0.01,-0.01,-0.01,-4.64,0.02,-0.04
14:05:35.377,0.0,-0.0,-0.0,-4.41,-0.12,-0.03
14:05:35.385,-0.01,0.01,0.02,-4.46,0.01,0.16
14:05:35.392,-0.0,-0.01,0.01,-4.55,-0.17,0.07
14:05:35.399,-0.0,-0.0,0.0,-4.37,-0.23,0.17
14:05:35.406,-0.01,-0.0,-0.0,-4.4,-0.11,-0.13
14:05:35.414,0.0,0.0,0.0,-4.47,-0.02,-0.05
14:05:35.421,-0.01,-0.01,0.0,-4.56,0.02,0.01
14:05:35.428,-0.01,-0.01,0.0,-4.48,-0.03,-0.04
14:05:35.435,-0.0,-0.0,0.0,-4.59,0.08,-0.08
14:05:35.443,-0.0,-0.0,-0.0,-4.53,-0.11,-0.04
14:05:35.450,-0.0,-0.0,-0.0,-4.48,-0.05,0.12
14:05:35.457,-0.01,-0.0,-0.0,-4.47,0.11,-0.17
14:05:35.465,-0.0,-0.0,0.0,-4.52,-0.02,-0.01
14:05:35.472,-0.0,-0.0,0.01,-4.6,0.03,0.05
14:05:35.479,0.0,-0.0,0.0,-4.56,-0.02,-0.1
14:05:35.486,-0.01,-0.0,-0.01,-4.4,-0.07,0.06
14:05:35.494,-0.0,-0.0,-0.01,-4.5,-0.07,0.11
14:05:35.501,-0.0,-0.0,0.0,-4.56,-0.02,0.11
14:05:35.508,-0.0,-0.0,0.0,-4.55,-0.12,0.08
14:05:35.515,-0.02,-0.0,-0.01,-4.47,-0.05,0.0
14:05:35.523,-0.01,-0.0,0.01,-4.56,0.07,-0.01
14:05:35.530,-0.0,-0.01,0.01,-4.52,0.02,0.02
14:05:35.537,-0.0,-0.0,0.01,-4.37,0.02,-0.12
14:05:35.545,-0.01,-0.0,0.0,-4.49,-0.06,0.13
14:05:35.553,0.0,-0.01,-0.0,-4.48,-0.15,0.06
14:05:35.560,-0.0,-0.01,-0.0,-4.47,-0.08,0.01
14:05:35.568,-0.0,-0.02,-0.01,-4.44,-0.02,-0.04
14:05:35.575,-0.0,-0.0,0.0,-4.42,-0.11,0.02
14:05:35.583,-0.01,-0.0,-0.0,-4.49,-0.1,-0.08
14:05:35.590,-0.0,-0.01,-0.0,-4.51,0.01,-0.08
14:05:35.597,-0.0,-0.02,-0.01,-4.49,0.13,-0.09
14:05:35.605,-0.0,0.0,0.02,-4.5,-0.11,-0.08
14:05:35.612,-0.0,-0.01,0.0,-4.43,0.12,-0.01
14:05:35.619,0.01,-0.0,0.0,-4.5,-0.06,-0.08
14:05:35.627,-0.0,-0.01,-0.0,-4.39,0.05,-0.06
14:05:35.634,-0.0,-0.0,0.0,-4.56,0.06,-0.2
14:05:35.641,-0.01,-0.0,0.02,-4.44,-0.13,0.06
14:05:35.648,-0.0,-0.0,-0.0,-4.47,-0.08,0.02
14:05:35.656,-0.0,-0.01,-0.0,-4.53,-0.01,0.04
14:05:35.663,-0.01,-0.01,0.0,-4.38,-0.11,-0.06
14:05:35.670,-0.0,-0.01,0.0,-4.4,-0.0,0.02
14:05:35.678,-0.0,-0.01,-0.01,-4.63,-0.07,0.02
14:05:35.685,-0.0,-0.0,-0.01,-4.47,0.18,-0.14
14:05:35.692,-0.0,-0.01,-0.0,-4.61,0.09,0.07
14:05:35.700,-0.0,-0.0,0.02,-4.42,0.04,0.06
14:05:35.707,-0.0,-0.0,-0.01,-4.5,0.02,0.08
14:05:35.714,-0.01,-0.0,-0.0,-4.52,0.11,-0.1
14:05:35.721,0.02,-0.0,-0.0,-4.43,0.02,-0.05
14:05:35.729,0.0,-0.0,-0.0,-4.63,0.02,0.03
14:05:35.736,-0.02,-0.01,0.01,-4.56,0.08,-0.22
14:05:35.743,-0.0,-0.0,0.0,-4.49,0.05,-0.11
14:05:35.751,0.0,-0.0,0.0,-4.46,0.1,-0.11
14:05:35.758,0.01,-0.01,-0.0,-4.53,0.09,-0.12
14:05:35.765,0.0,-0.01,0.0,-4.4,-0.03,-0.1
14:05:35.772,0.0,-0.01,-0.0,-4.47,-0.08,-0.1
14:05:35.780,-0.02,-0.0,-0.0,-4.47,0.01,0.1
14:05:35.787,-0.0,-0.01,-0.0,-4.53,0.03,0.04
14:05:35.794,0.0,-0.0,0.01,-4.45,-0.15,0.07
14:05:35.801,-0.01,-0.01,-0.01,-4.51,-0.18,0.0
14:05:35.809,0.0,-0.0,-0.0,-4.41,0.05,0.02
14:05:35.816,-0.01,-0.01,0.0,-4.47,-0.12,0.11
14:05:35.823,-0.0,-0.01,-0.01,-4.47,-0.02,-0.11
14:05:35.831,-0.0,-0.01,0.01,-4.43,-0.02,-0.1
14:05:35.838,-0.0,-0.0,0.0,-4.65,-0.11,0.08
14:05:35.845,-0.0,-0.0,0.02,-4.49,-0.08,0.02
14:05:35.852,-0.01,-0.0,-0.0,-4.6,-0.0,-0.16
14:05:35.860,0.01,-0.0,0.0,-4.42,0.12,-0.11
14:05:35.867,-0.0,-0.01,-0.0,-4.43,2.16,-0.08
14:05:35.874,-0.0,-0.0,0.01,-4.37,0.14,0.09
14:05:35.882,0.0,-0.0,-0.0,-4.52,-0.05,-0.01
14:05:35.889,-0.01,0.01,-0.01,-4.5,-0.21,-0.13
14:05:35.896,-0.01,-0.0,0.01,-4.47,-0.07,-0.3
14:05:35.903,0.01,-0.0,-0.01,-4.47,0.01,-0.08
14:05:35.911,-0.01,-0.02,0.0,-4.45,0.04,-0.01
14:05:35.918,-0.01,-0.01,-0.0,-4.44,-0.22,-0.1
14:05:35.925,-0.0,0.01,-0.0,-4.63,-0.09,-0.02
14:05:35.932,-0.0,-0.0,-0.01,-4.52,-0.04,-0.05
14:05:35.940,-0.0,-0.0,0.01,-4.54,-0.0,0.11
14:05:35.947,-0.0,-0.0,-0.0,-4.35,-0.07,0.05
14:05:35.954,-0.0,-0.0,0.02,-4.55,0.02,-0.01
14:05:35.961,-0.01,-0.01,0.0,-4.52,0.19,-0.11
14:05:35.969,0.01,-0.0,-0.01,-4.47,-0.02,0.11
14:05:35.976,-0.01,-0.0,0.0,-4.59,-0.05,-0.11
14:05:35.983,-0.01,-0.01,0.0,-4.63,-0.21,-0.08
14:05:35.991,-0.01,-0.0,-0.01,-4.5,0.11,-0.07
14:05:35.998,-0.0,-0.0,-0.01,-4.49,-0.12,0.06
14:05:36.005,-0.0,-0.0,-0.0,-4.53,0.08,0.03
14:05:36.012,-0.01,-0.01,-0.0,-4.39,-0.05,-0.11
14:05:36.020,-0.0,-0.01,-0.0,-4.47,-0.11,0.1
14:05:36.027,-0.0,-0.01,0.0,-4.47,-0.11,0.15
14:05:36.034,0.01,-0.02,-0.01,-4.5,0.01,-0.05
14:05:36.042,-0.01,-0.01,0.0,-4.53,-0.04,0.04
14:05:36.050,-0.0,0.0,0.0,-4.49,-0.16,-0.2
14:05:36.057,-0.02,-0.0,-0.01,-4.48,-0.03,-0.05
14:05:36.064,-0.0,-0.0,-0.0,-4.5,-0.05,-0.05
14:05:36.071,-0.0,-0.0,0.01,-4.47,0.02,-0.06
14:05:36.079,-0.0,-0.02,0.01,-4.45,0.05,-0.04
14:05:36.086,0.0,-0.01,0.0,-4.51,-0.16,-0.05
14:05:36.094,0.01,-0.01,0.0,-4.52,0.03,-0.08
14:05:36.101,-0.0,-0.0,-0.01,-4.53,-0.08,-0.05
14:05:36.108,-0.0,-0.0,-0.0,-4.73,0.04,0.05
14:05:36.116,-0.0,-0.01,-0.0,-4.54,-0.14,-0.05
14:05:36.123,-0.01,-0.0,0.0,-4.53,0.12,0.15
14:05:36.130,-0.01,-0.01,-0.0,-4.58,0.08,-0.02
14:05:36.138,-0.0,-0.0,0.0,-4.37,0.11,-0.23
14:05:36.145,-0.0,0.0,0.01,-4.45,-0.14,0.02
14:05:36.152,-0.0,0.0,0.02,-4.44,0.02,-0.1
14:05:36.159,-0.0,-0.0,0.0,-4.53,-0.08,-0.17
14:05:36.167,-0.01,-0.0,-0.01,-4.53,0.1,0.07
14:05:36.174,0.0,-0.01,-0.0,-4.47,-0.02,0.06
14:05:36.181,-0.0,-0.0,-0.0,-4.53,-0.05,0.03
14:05:36.189,-0.01,-0.01,-0.0,-4.5,-0.02,0.02
14:05:36.196,0.0,-0.01,-0.0,-4.45,0.01,-0.14
14:05:36.203,-0.0,0.0,0.01,-4.54,-0.1,-0.05
14:05:36.211,-0.01,-0.0,0.02,-4.4,-0.14,-0.05
14:05:36.218,0.0,-0.01,-0.01,-4.31,-0.04,-0.11
14:05:36.225,-0.01,-0.01,-0.0,-4.55,-0.01,-0.11
14:05:36.233,-0.0,-0.01,0.0,-4.37,0.02,-0.08
14:05:36.240,-0.01,0.0,0.0,-4.6,-0.0,-0.11
14:05:36.247,-0.0,-0.01,-0.0,-4.44,0.05,0.13
14:05:36.254,-0.0,-0.0,0.01,-4.43,0.01,0.04
14:05:36.262,-0.0,-0.0,0.01,-4.42,-0.02,-0.14
14:05:36.269,-0.01,-0.01,-0.01,-4.49,0.02,-0.08
14:05:36.276,-0.01,-0.0,0.0,-4.57,-0.06,0.05
14:05:36.284,0.01,0.0,0.01,-4.49,0.05,-0.05
14:05:36.291,-0.0,0.0,0.0,-4.55,0.09,-0.06
14:05:36.298,-0.0,-0.0,-0.0,-4.48,0.02,-0.01
14:05:36.305,-0.0,-0.01,-0.0,-4.24,-0.05,-0.07
14:05:36.313,-0.0,-0.0,0.0,-4.42,0.14,-0.05
14:05:36.320,0.0,-0.0,0.0,-4.44,0.08,0.04
14:05:36.327,0.01,-0.0,0.0,-4.5,0.14,-0.09
14:05:36.335,-0.0,-0.01,0.0,-4.54,-0.08,-0.12
14:05:36.342,-0.0,-0.0,0.0,-4.41,-0.04,0.06
14:05:36.349,-0.01,-0.0,0.02,-4.5,0.05,0.02
14:05:36.356,0.0,-0.0,-0.0,-4.43,-0.06,0.05
14:05:36.364,-0.01,-0.01,0.01,-4.48,-0.09,-0.05
14:05:36.371,0.01,-0.0,0.0,-4.44,0.16,0.01
14:05:36.378,-0.01,-0.01,0.0,-4.53,0.05,-0.05
14:05:36.385,-0.02,-0.01,0.02,-4.47,-0.03,0.02
14:05:36.393,-0.0,-0.0,-0.0,-4.55,-0.01,0.03
14:05:36.400,-0.0,-0.0,0.0,-4.43,-0.09,0.02
14:05:36.407,-0.0,-0.01,0.01,-4.49,-0.08,-0.12
14:05:36.415,-0.0,-0.01,0.0,-4.48,-0.02,0.14
14:05:36.422,-0.01,-0.0,-0.0,-4.44,-0.02,-0.08
14:05:36.429,-0.0,0.01,-0.0,-4.39,-0.01,0.04
14:05:36.437,-0.01,0.0,0.01,-4.44,0.06,-0.09
14:05:36.444,-0.0,-0.0,0.0,-4.5,0.13,-0.05
14:05:36.451,-0.0,-0.01,-0.0,-4.55,-0.01,-0.01
14:05:36.458,-0.0,-0.0,0.01,-4.46,-0.15,-0.12
14:05:36.466,-0.0,-0.01,-0.01,-4.37,0.11,-0.01
14:05:36.473,-0.01,-0.0,-0.01,-4.49,-0.05,-0.16
14:05:36.480,-0.0,0.0,-0.0,-4.53,-0.08,-0.16
14:05:36.487,-0.0,0.0,0.01,-4.53,-0.05,0.09
14:05:36.495,-0.0,-0.01,-0.01,-4.48,0.09,-0.11
14:05:36.502,-0.0,-0.0,-0.0,-4.46,-0.01,-0.06
14:05:36.509,-0.01,-0.01,-0.01,-4.5,0.01,-0.04
14:05:36.517,-0.01,-0.01,-0.0,-4.46,-0.16,0.03
14:05:36.524,-0.0,-0.01,0.0,-4.57,-0.02,0.0
14:05:36.531,0.01,-0.01,-0.0,-4.5,-0.05,0.05
14:05:36.538,0.0,0.0,0.0,-4.37,0.21,0.02
14:05:36.546,-0.01,-0.01,0.0,-4.47,-0.05,0.01
14:05:36.553,0.01,-0.0,0.01,-4.44,-0.02,-0.07
14:05:36.560,-0.0,-0.0,0.0,-4.5,-0.19,-0.02
14:05:36.567,0.01,-0.01,-0.0,-4.44,0.06,0.15
14:05:36.575,-0.0,-0.01,-0.0,-4.39,0.05,0.02
14:05:36.582,-0.01,-0.01,-0.0,-4.48,-0.08,0.15
14:05:36.589,0.0,0.0,-0.0,-4.38,0.08,0.01
14:05:36.597,0.0,-0.0,-0.0,-4.44,0.1,-0.07
14:05:36.604,-0.0,-0.01,-0.0,-4.52,0.07,0.0
14:05:36.611,0.01,-0.01,-0.0,-4.66,-0.04,0.01
14:05:36.619,-0.01,-0.0,0.0,-4.58,-0.0,-0.18
14:05:36.626,-0.01,-0.0,0.0,-4.47,-0.08,-0.03
14:05:36.633,-0.02,-0.0,0.0,-4.56,0.08,0.18
14:05:36.640,-0.01,-0.01,-0.01,-4.58,0.04,0.15
14:05:36.648,-0.0,-0.0,-0.0,-4.37,-0.01,0.03
14:05:36.655,-0.01,0.01,0.01,-4.52,-0.13,-0.01
14:05:36.662,-0.0,-0.0,-0.0,-4.56,0.03,0.05
14:05:36.669,-0.0,-0.01,-0.0,-4.4,-0.01,0.05
14:05:36.677,-0.01,-0.0,-0.01,-4.46,0.11,0.05
14:05:36.684,-0.01,-0.0,0.0,-4.53,-0.1,-0.14
14:05:36.691,-0.0,-0.01,-0.0,-4.38,0.07,0.05
14:05:36.699,-0.0,-0.01,0.01,-4.53,-0.09,-0.04
14:05:36.706,-0.01,-0.0,0.0,-4.45,-0.1,0.02
14:05:36.713,-0.01,-0.01,-0.0,-4.52,-0.06,-0.01
14:05:36.720,-0.01,-0.01,-0.0,-4.54,-0.01,-0.03
14:05:36.728,-0.01,-0.0,-0.0,-4.43,-0.11,0.05
14:05:36.735,-0.0,-0.01,0.0,-4.45,0.01,-0.04
14:05:36.742,-0.01,-0.0,-0.0,-4.44,0.01,-0.06
14:05:36.749,-0.0,-0.01,0.0,-4.44,0.11,-0.11
14:05:36.757,0.01,-0.0,-0.01,-4.45,-0.01,-0.18
14:05:36.764,-0.0,-0.0,0.0,-4.53,-0.01,-0.02
14:05:36.771,-0.01,-0.01,-0.0,-4.47,-0.1,-0.18
14:05:36.779,0.0,0.01,-0.0,-4.38,-0.07,0.01
14:05:36.786,0.0,-0.0,-0.0,-4.53,0.02,-0.08
14:05:36.793,-0.01,-0.01,0.0,-4.57,0.04,0.11
14:05:36.800,-0.0,-0.0,0.02,-4.6,0.01,-0.03
14:05:36.808,-0.01,-0.0,-0.0,-4.47,0.14,-0.01
14:05:36.815,-0.0,-0.0,-0.0,-4.47,0.01,0.03
14:05:36.822,0.01,-0.01,-0.0,-4.53,-0.09,-0.18
14:05:36.829,-0.01,-0.0,-0.0,-4.4,-0.03,-0.01
14:05:36.837,-0.0,-0.0,-0.0,-4.41,-0.07,0.16
14:05:36.844,-0.0,-0.0,0.0,-4.5,-0.03,0.11
14:05:36.851,0.0,-0.01,0.0,-4.46,0.05,-0.04
14:05:36.859,-0.0,0.0,0.01,-4.5,-0.13,-0.05
14:05:36.866,-0.0,-0.01,-0.01,-4.56,0.08,0.02
14:05:36.873,-0.01,-0.0,-0.0,-4.53,0.09,-0.05
14:05:36.880,-0.0,-0.0,0.01,-4.58,-0.08,0.14
14:05:36.888,-0.02,-0.01,0.02,-4.53,-0.18,0.03
14:05:36.895,-0.0,-0.0,-0.0,-4.48,0.08,-0.06
14:05:36.902,0.0,0.0,0.0,-4.55,0.04,-0.06
14:05:36.909,-0.0,-0.01,0.0,-4.56,-0.06,-0.05
14:05:36.917,-0.01,-0.01,-0.0,-4.47,-0.08,-0.1
14:05:36.924,-0.01,-0.0,0.01,-4.51,0.02,0.0
14:05:36.931,-0.01,-0.01,0.02,-4.56,-0.22,0.0
14:05:36.939,0.0,-0.01,-0.0,-4.53,0.09,-0.13
14:05:36.946,-0.0,-0.0,-0.01,-4.38,-0.1,0.11
14:05:36.953,0.0,0.0,0.02,-4.6,-0.05,0.08
14:05:36.960,-0.0,-0.0,0.0,-4.5,-0.01,0.21
14:05:36.968,-0.02,-0.0,0.02,-4.55,-0.0,-0.08
14:05:36.975,-0.01,-0.02,-0.01,-4.48,-0.12,-0.05
14:05:36.982,-0.01,-0.01,0.0,-4.56,-0.14,0.1
14:05:36.989,-0.01,-0.01,0.0,-4.5,-0.02,-0.14
14:05:36.997,0.0,-0.0,-0.0,-4.45,0.02,0.12
14:05:37.004,-0.0,-0.01,-0.0,-4.44,0.01,0.21
14:05:37.011,0.01,-0.01,-0.0,-4.52,-0.1,-0.19
14:05:37.019,-0.0,-0.0,0.01,-4.48,-0.09,0.02
14:05:37.026,-0.0,-0.01,-0.01,-4.56,0.14,-0.06
14:05:37.033,-0.01,-0.0,0.0,-4.47,0.02,-0.1
14:05:37.040,-0.0,-0.01,-0.0,-4.55,0.05,0.03
14:05:37.048,-0.01,-0.01,-0.0,-4.43,-0.07,-0.05
14:05:37.055,-0.01,0.0,0.01,-4.37,0.03,-0.03
14:05:37.062,-0.01,-0.01,0.0,-4.41,0.09,0.0
14:05:37.069,-0.0,-0.0,0.0,-4.37,-0.11,0.02
14:05:37.077,-0.0,-0.01,-0.01,-4.53,0.02,-0.08
14:05:37.084,-0.0,0.0,-0.0,-4.38,0.08,0.09
14:05:37.091,0.0,-0.01,0.01,-4.52,-0.15,-0.01
14:05:37.099,-0.0,-0.01,0.02,-4.49,-0.03,0.01
14:05:37.106,-0.0,-0.01,-0.0,-4.6,-0.04,-0.04
14:05:37.113,-0.0,-0.0,0.02,-4.5,0.06,-0.1
14:05:37.121,0.0,-0.0,0.0,-4.41,0.05,0.18
14:05:37.128,-0.02,-0.0,0.0,-4.4,0.03,0.08
14:05:37.135,-0.0,-0.0,-0.01,-4.53,-0.02,-0.08
14:05:37.143,-0.0,-0.01,-0.0,-4.49,0.02,0.07
14:05:37.150,0.01,0.0,0.01,-4.47,-0.15,0.06
14:05:37.157,-0.0,-0.0,0.0,-4.28,0.08,-0.18
14:05:37.164,-0.01,-0.01,-0.0,-4.49,0.05,-0.01
14:05:37.172,-0.0,0.0,-0.0,-4.47,0.03,0.05
14:05:37.179,-0.01,-0.01,0.0,-4.41,-0.16,-0.19
14:05:37.186,-0.0,-0.01,0.01,-4.5,-0.27,-0.06
14:05:37.194,-0.02,-0.01,0.0,-4.54,0.02,-0.05
14:05:37.201,-0.0,-0.01,0.0,-4.46,0.03,-0.11
14:05:37.208,-0.01,-0.01,-0.0,-4.46,0.11,-0.05
14:05:37.215,-0.0,-0.0,0.0,-4.43,-0.0,-0.08
14:05:37.223,-0.01,-0.01,0.0,-4.5,0.02,0.02
14:05:37.230,-0.01,-0.0,-0.01,-4.52,0.16,-0.1
14:05:37.237,-0.01,-0.01,-0.0,-4.5,0.1,-0.01
14:05:37.245,0.0,-0.0,0.0,-4.44,-0.21,-0.01
14:05:37.252,-0.01,-0.01,-0.0,-4.41,0.02,0.09
14:05:37.259,-0.0,-0.01,0.01,-4.59,0.08,0.12
14:05:37.267,-0.01,-0.01,-0.0,-4.44,0.08,0.03
14:05:37.274,-0.01,-0.02,0.01,-4.48,0.01,0.0
14:05:37.281,-0.01,-0.01,0.0,-4.49,-0.02,-0.18
14:05:37.288,-0.01,-0.01,0.02,-4.53,0.08,0.05
14:05:37.296,-0.0,-0.0,-0.0,-4.49,0.01,0.0
14:05:37.303,-0.0,-0.0,0.0,-4.37,0.13,-0.11
14:05:37.310,-0.0,-0.01,-0.01,-4.6,-0.05,-0.21
14:05:37.318,-0.0,-0.01,-0.0,-4.47,0.09,-0.01
14:05:37.325,-0.01,-0.0,0.0,-4.38,0.11,0.04
14:05:37.332,-0.01,-0.0,-0.0,-4.46,-0.03,-0.04
14:05:37.339,-0.0,-0.01,0.01,-4.53,0.01,-0.03
14:05:37.347,0.01,-0.0,-0.0,-4.47,0.07,-0.03
14:05:37.354,-0.0,0.0,-0.01,-4.4,-0.15,0.04
14:05:37.361,-0.01,-0.01,0.0,-4.49,-0.05,-0.04
14:05:37.369,-0.01,0.0,-0.0,-4.31,0.13,0.14
14:05:37.376,-0.01,-0.0,0.0,-4.38,-0.06,-0.24
14:05:37.383,-0.01,-0.0,0.0,-4.47,0.05,-0.05
14:05:37.390,-0.0,-0.01,-0.0,-4.43,0.09,0.01
14:05:37.398,-0.0,-0.01,0.0,-4.44,0.1,-0.02
14:05:37.405,-0.01,-0.0,0.0,-4.44,0.01,-0.18
14:05:37.412,-0.01,-0.02,0.0,-4.56,-0.1,-0.07
14:05:37.419,0.0,-0.0,0.0,-4.37,-0.02,0.01
14:05:37.427,-0.0,-0.0,0.01,-4.55,0.13,-0.05
14:05:37.434,-0.01,-0.01,-0.01,-4.5,-0.2,-0.02
14:05:37.441,-0.0,0.0,-0.01,-4.52,-0.2,-0.05
14:05:37.448,-0.0,-0.01,0.01,-4.5,-0.03,-0.11
14:05:37.456,-0.0,-0.01,0.0,-4.42,0.05,0.25
14:05:37.463,-0.01,-0.0,-0.0,-4.59,-0.05,0.08
14:05:37.470,-0.0,-0.0,0.0,-4.44,-0.08,0.01
14:05:37.478,0.02,-0.01,-0.0,-4.46,-0.09,0.05
14:05:37.485,-0.0,-0.01,-0.01,-4.43,-0.0,0.01
14:05:37.492,-0.01,-0.01,0.01,-4.47,-0.11,0.25
14:05:37.499,-0.0,-0.0,0.0,-4.5,0.02,-0.07
14:05:37.507,-0.01,-0.01,-0.0,-4.42,0.01,0.1
14:05:37.514,-0.01,-0.02,-0.01,-4.53,0.04,0.02
14:05:37.521,0.0,-0.0,0.01,-4.37,-0.02,-0.19
14:05:37.529,-0.01,-0.0,-0.0,-4.43,-0.09,-0.14
14:05:37.536,-0.01,-0.0,0.01,-4.57,0.05,0.02
14:05:37.543,0.0,-0.0,0.0,-4.42,0.07,-0.04
14:05:37.551,-0.0,-0.0,0.01,-4.55,-0.02,-0.14
14:05:37.558,0.01,0.0,0.01,-4.63,0.23,-0.05
14:05:37.565,-0.01,-0.01,0.0,-4.43,0.14,-0.09
14:05:37.572,0.01,-0.02,0.02,-4.47,-0.04,-0.05
14:05:37.580,-0.01,-0.0,0.01,-4.6,0.11,-0.07
14:05:37.587,-0.0,-0.0,0.0,-4.38,-0.16,0.2
14:05:37.594,-0.01,-0.0,0.0,-4.6,-0.07,-0.04
14:05:37.602,-0.0,-0.01,0.0,-4.4,0.06,-0.2
14:05:37.609,-0.0,-0.01,0.0,-4.49,-0.05,0.02
14:05:37.616,0.01,-0.0,0.02,-4.47,-0.07,-0.09
14:05:37.623,-0.0,-0.01,0.01,-4.35,-0.04,0.02
14:05:37.631,0.01,-0.01,0.0,-4.58,-0.09,-0.04
14:05:37.638,-0.0,0.0,0.01,-4.54,-0.02,0.06
14:05:37.645,-0.0,-0.01,0.0,-4.41,-0.07,-0.04
14:05:37.652,-0.0,-0.01,-0.01,-4.47,-0.04,0.14
14:05:37.660,-0.01,-0.01,0.0,-4.54,0.03,-0.08
14:05:37.667,-0.01,0.0,-0.0,-4.28,-0.1,-0.01
14:05:37.674,-0.0,-0.0,-0.0,-4.52,0.02,0.0
14:05:37.682,-0.0,-0.0,0.0,-4.48,-0.04,0.01
14:05:37.689,-0.0,-0.0,-0.0,-4.51,-0.02,-0.08
14:05:37.696,-0.0,-0.01,-0.0,-4.47,0.07,-0.09
14:05:37.703,-0.0,-0.0,-0.0,-4.53,0.02,0.11
14:05:37.711,-0.0,-0.01,0.0,-4.54,-0.05,0.08
14:05:37.718,-0.01,-0.01,0.0,-4.39,-0.0,-0.02
14:05:37.725,-0.0,-0.0,0.01,-4.5,-0.12,-0.01
14:05:37.732,-0.0,-0.01,0.0,-4.42,-0.07,-0.17
14:05:37.740,-0.0,-0.0,0.0,-4.47,-0.13,-0.09
14:05:37.747,-0.01,-0.01,-0.01,-4.5,-0.11,-0.08
14:05:37.754,-0.0,-0.0,-0.01,-4.39,0.07,-0.06
14:05:37.761,-0.0,0.0,0.01,-4.5,0.08,0.02
14:05:37.769,-0.02,-0.0,-0.0,-4.37,0.01,0.08
14:05:37.776,-0.0,-0.01,0.0,-4.54,0.08,-0.05
14:05:37.783,0.0,0.0,-0.01,-4.46,-0.08,-0.24
14:05:37.791,-0.01,-0.0,0.02,-4.41,-0.01,-0.05
14:05:37.798,-0.01,-0.0,-0.0,-4.38,-0.09,-0.04
14:05:37.805,-0.0,-0.01,-0.0,-4.44,-0.01,0.09
14:05:37.812,-0.0,-0.01,0.01,-4.56,-0.06,0.03
14:05:37.820,-0.01,-0.0,-0.01,-4.51,0.08,0.02
14:05:37.827,-0.02,-0.01,-0.0,-4.53,-0.14,-0.15
14:05:37.834,-0.0,-0.0,0.01,-4.47,-0.08,0.11
14:05:37.841,-0.01,-0.01,0.0,-4.53,-0.04,0.04
14:05:37.849,0.01,-0.0,0.0,-4.53,0.05,-0.02
14:05:37.856,-0.0,-0.0,0.0,-4.41,-0.09,0.06
14:05:37.863,0.0,-0.01,-0.0,-4.47,0.02,-0.09
14:05:37.871,-0.0,-0.0,0.0,-4.66,-0.19,0.01
14:05:37.878,-0.0,-0.01,0.0,-4.53,0.05,0.12
14:05:37.885,-0.0,0.0,0.0,-4.42,0.12,0.04
14:05:37.892,0.01,-0.01,-0.0,-4.57,-0.11,0.09
14:05:37.900,-0.0,-0.01,-0.0,-4.4,0.04,-0.14
14:05:37.907,-0.01,-0.01,0.0,-4.57,-0.03,0.04
14:05:37.914,-0.0,-0.02,-0.0,-4.54,0.04,-0.15
14:05:37.921,-0.0,-0.01,-0.01,-4.45,-0.17,0.0
14:05:37.929,-0.01,-0.01,0.0,-4.48,0.03,-0.05
14:05:37.936,-0.0,-0.0,0.01,-4.63,-0.08,-0.02
14:05:37.943,-0.0,-0.01,-0.01,-4.39,-0.02,0.1
14:05:37.951,-0.0,-0.0,-0.01,-4.56,0.05,0.08
14:05:37.958,-0.01,0.0,-0.01,-4.56,0.05,0.1
14:05:37.965,-0.01,-0.01,0.01,-4.69,-0.15,-0.05
14:05:37.972,-0.02,-0.01,-0.01,-4.5,0.02,-0.12
14:05:37.980,0.01,-0.0,-0.01,-4.48,-0.01,-0.11
14:05:37.987,-0.0,-0.0,-0.0,-4.58,-0.14,-0.02
14:05:37.994,-0.01,-0.01,-0.01,-4.56,-0.0,-0.08
14:05:38.001,-0.0,-0.0,-0.01,-4.5,0.07,0.03
14:05:38.009,-0.0,-0.01,-0.0,-4.48,0.02,-0.15
14:05:38.016,-0.0,0.0,-0.0,-4.4,0.05,0.03
14:05:38.023,-0.0,-0.01,-0.0,-4.48,0.06,-0.11
14:05:38.030,-0.0,-0.01,-0.0,-4.37,-0.0,0.06
14:05:38.038,0.0,-0.01,-0.0,-4.43,-0.04,0.0
14:05:38.045,0.01,0.0,-0.0,-4.53,0.03,-0.15
14:05:38.052,-0.01,-0.0,-0.01,-4.49,0.14,0.02
14:05:38.059,0.0,-0.02,-0.01,-4.52,-0.03,-0.06
14:05:38.067,-0.0,-0.0,-0.01,-4.56,0.12,-0.06
14:05:38.074,-0.0,-0.0,0.0,-4.42,0.06,0.01
14:05:38.081,-0.01,-0.0,-0.01,-4.5,0.14,0.15
14:05:38.089,-0.01,-0.0,0.01,-4.4,-0.08,0.05
14:05:38.096,-0.0,-0.01,-0.0,-4.51,0.05,-0.03
14:05:38.103,-0.01,-0.0,-0.0,-4.37,-0.02,-0.27
14:05:38.111,0.0,0.0,-0.0,-4.49,-0.07,-0.01
14:05:38.118,-0.02,-0.01,0.02,-4.47,-0.08,0.05
14:05:38.125,-0.01,-0.0,0.0,-4.41,-0.06,-0.12
14:05:38.133,-0.0,-0.0,-0.0,-4.54,0.02,0.02
14:05:38.140,-0.0,0.01,-0.01,-4.57,0.1,-0.07
14:05:38.147,-0.0,-0.0,-0.0,-4.41,0.05,-0.09
14:05:38.154,-0.0,-0.01,0.0,-4.47,0.18,0.08
14:05:38.162,-0.01,0.0,0.02,-4.58,-0.05,-0.06
14:05:38.169,0.0,-0.0,-0.0,-4.66,-0.05,-0.13
14:05:38.176,-0.0,-0.0,0.0,-4.32,0.05,-0.13
14:05:38.183,-0.01,-0.0,0.0,-4.43,-0.07,0.02
14:05:38.191,-0.0,-0.0,-0.0,-4.48,0.14,-0.09
14:05:38.198,-0.02,-0.01,0.0,-4.5,0.12,0.08
14:05:38.205,0.0,-0.0,0.0,-4.53,0.07,0.08
14:05:38.213,-0.01,-0.0,0.0,-4.47,0.14,0.01
14:05:38.220,0.02,-0.0,0.02,-4.56,-0.0,-0.07
14:05:38.227,-0.0,0.01,-0.01,-4.33,0.04,0.02
14:05:38.234,-0.01,-0.0,0.0,-4.56,-0.08,-0.14
14:05:38.242,-0.01,0.0,-0.0,-4.47,0.11,-0.07
14:05:38.249,-0.01,-0.01,0.02,-4.51,0.2,-0.01
14:05:38.256,-0.0,-0.0,0.0,-4.58,0.07,-0.07
14:05:38.263,-0.01,-0.0,-0.0,-4.5,-0.01,-0.34
14:05:38.271,-0.0,-0.0,0.0,-4.47,-0.04,-0.17
14:05:38.278,-0.0,-0.0,-0.0,-4.48,-0.17,-0.03
14:05:38.285,-0.01,-0.0,0.0,-4.4,-0.08,-0.11
14:05:38.292,-0.0,-0.0,-0.01,-4.37,0.03,-0.03
14:05:38.300,-0.0,0.0,0.0,-4.49,-0.08,0.02
14:05:38.307,-0.0,-0.01,-0.01,-4.6,0.08,-0.08
14:05:38.314,-0.0,-0.01,-0.01,-4.39,-0.0,0.02
14:05:38.322,-0.01,-0.0,-0.0,-4.6,-0.05,-0.03
14:05:38.329,-0.0,-0.01,-0.01,-4.53,0.02,-0.12
14:05:38.336,-0.01,-0.0,-0.0,-4.51,0.12,0.06
14:05:38.343,-0.0,-0.0,-0.0,-4.51,0.17,-0.13
14:05:38.351,0.01,0.0,-0.01,-4.4,-0.1,0.01
14:05:38.358,-0.0,-0.01,0.02,-4.42,-0.05,0.1
14:05:38.365,-0.01,-0.01,-0.01,-4.55,-0.18,-0.02
14:05:38.372,0.01,-0.01,0.01,-4.4,0.06,-0.01
14:05:38.380,0.0,-0.0,0.0,-4.4,-0.07,-0.07
14:05:38.387,0.0,0.0,0.01,-4.39,0.11,0.02
14:05:38.394,-0.01,-0.01,0.0,-4.54,-0.1,-0.13
14:05:38.401,0.0,-0.01,0.0,-4.44,0.03,-0.08
14:05:38.409,-0.01,-0.0,-0.0,-4.43,-0.01,0.11
14:05:38.416,-0.0,-0.0,-0.0,-4.47,0.02,0.05
14:05:38.423,-0.0,-0.0,0.01,-4.51,-0.1,-0.09
14:05:38.431,-0.0,-0.0,-0.0,-4.52,0.03,-0.18
14:05:38.438,0.0,-0.0,-0.01,-4.45,-0.16,0.05
14:05:38.445,-0.0,-0.01,-0.01,-4.59,-0.02,-0.07
14:05:38.452,-0.0,-0.01,0.0,-4.39,0.15,0.04
14:05:38.460,-0.0,-0.01,0.02,-4.56,-0.08,-0.02
14:05:38.467,-0.0,-0.0,0.0,-4.5,-0.06,0.07
14:05:38.474,-0.01,-0.0,-0.0,-4.58,0.01,-0.1
14:05:38.481,-0.0,-0.0,-0.0,-4.6,0.03,0.02
14:05:38.489,-0.0,-0.0,0.01,-4.36,-0.11,0.05
14:05:38.496,-0.0,-0.0,-0.0,-4.35,-0.04,0.02
14:05:38.503,-0.01,-0.01,0.0,-4.33,0.02,-0.19
14:05:38.510,-0.01,-0.0,0.01,-4.47,0.14,-0.04
14:05:38.518,-0.01,-0.01,0.01,-4.48,2.12,0.08
14:05:38.525,-0.0,-0.0,0.01,-4.5,0.08,-0.11
14:05:38.532,-0.0,-0.01,0.0,-4.36,-0.08,-0.01
14:05:38.540,-0.01,-0.01,-0.0,-4.53,0.06,-0.14
14:05:38.547,-0.01,0.01,-0.01,-4.39,0.1,0.21
14:05:38.554,-0.0,-0.0,-0.01,-4.53,-0.05,0.04
14:05:38.561,-0.0,-0.02,0.02,-4.37,0.02,-0.08
14:05:38.569,0.01,-0.0,0.01,-4.61,-0.13,-0.04
14:05:38.576,-0.0,-0.01,-0.0,-4.53,-0.06,0.0
14:05:38.583,-0.0,-0.02,-0.01,-4.48,0.03,0.05
14:05:38.590,-0.0,-0.01,0.0,-4.33,0.05,-0.01
14:05:38.598,-0.0,-0.0,-0.0,-4.52,0.02,-0.15
14:05:38.605,-0.01,-0.02,-0.0,-4.44,0.03,-0.09
14:05:38.612,-0.01,-0.0,-0.01,-4.47,0.15,0.04
14:05:38.620,-0.01,-0.01,0.01,-4.58,0.04,-0.13
14:05:38.627,0.01,-0.02,-0.01,-4.41,0.02,-0.11
14:05:38.634,-0.0,-0.0,-0.0,-4.45,0.06,-0.14
14:05:38.641,-0.01,-0.0,-0.0,-4.38,-0.03,-0.04
14:05:38.649,-0.0,-0.0,-0.01,-4.57,0.03,0.03
14:05:38.656,-0.0,-0.01,-0.0,-4.29,-0.08,-0.08
14:05:38.663,-0.01,-0.0,0.0,-4.33,0.1,-0.02
14:05:38.670,-0.01,-0.01,-0.01,-4.49,0.07,-0.21
14:05:38.678,-0.0,-0.01,0.01,-4.56,0.05,-0.08
14:05:38.685,-0.0,-0.0,0.0,-4.48,-0.11,-0.02
14:05:38.692,0.01,0.0,0.0,-4.46,0.01,0.05
14:05:38.700,-0.0,-0.0,-0.0,-4.46,-0.03,0.0
14:05:38.707,-0.0,-0.0,0.02,-4.5,0.02,-0.04
14:05:38.714,-0.0,-0.01,-0.0,-4.58,-0.09,0.16
14:05:38.721,-0.01,0.0,-0.0,-4.47,-0.0,-0.05
14:05:38.729,-0.01,-0.01,-0.01,-4.39,-0.09,-0.06
14:05:38.736,-0.0,-0.01,0.0,-4.39,-0.0,-0.16
14:05:38.743,-0.0,0.0,0.0,-4.57,0.11,-0.08
14:05:38.751,-0.0,-0.0,-0.01,-4.38,-0.01,-0.05
14:05:38.758,-0.0,-0.0,-0.0,-4.59,-0.14,-0.08
14:05:38.765,-0.0,-0.01,-0.01,-4.36,0.01,-0.09
14:05:38.772,-0.0,-0.02,-0.0,-4.5,-0.07,0.01
14:05:38.780,-0.01,-0.0,-0.0,-4.53,0.07,0.1
14:05:38.787,0.0,-0.0,0.0,-4.44,0.07,-0.11
14:05:38.794,-0.01,-0.0,-0.01,-4.4,-0.06,-0.17
14:05:38.802,-0.01,-0.0,0.0,-4.37,-0.11,-0.07
14:05:38.809,-0.0,-0.0,0.01,-4.47,-0.02,-0.02
14:05:38.816,-0.01,-0.01,0.01,-4.39,-0.02,-0.01
14:05:38.824,-0.01,0.0,0.01,-4.47,-0.14,0.08
14:05:38.831,-0.01,-0.0,0.02,-4.55,-0.04,-0.16
14:05:38.838,-0.0,-0.0,0.0,-4.28,0.14,0.16
14:05:38.846,-0.0,0.0,-0.0,-4.54,-0.0,-0.06
14:05:38.853,-0.0,-0.0,-0.0,-4.48,-0.05,-0.09
14:05:38.860,-0.0,-0.01,0.0,-4.53,-0.06,-0.08
14:05:38.867,0.0,-0.0,0.01,-4.38,-0.13,0.0
14:05:38.875,-0.01,-0.01,-0.0,-4.52,-0.09,-0.05
14:05:38.882,-0.01,-0.01,0.0,-4.56,-0.05,-0.07
14:05:38.889,0.01,-0.01,0.01,-4.52,-0.14,-0.1
14:05:38.897,0.0,0.0,0.0,-4.56,-0.01,0.03
14:05:38.904,-0.0,0.0,0.01,-4.45,0.05,-0.03
14:05:38.911,0.01,-0.01,-0.01,-4.4,0.01,-0.13
14:05:38.918,-0.01,-0.0,-0.0,-4.46,0.05,-0.02
14:05:38.926,-0.01,0.01,0.0,-4.39,0.01,0.05
14:05:38.933,-0.01,-0.01,0.02,-4.44,0.01,-0.11
14:05:38.940,-0.0,-0.0,0.0,-4.44,0.11,0.09
14:05:38.948,0.01,-0.0,-0.0,-4.53,-0.04,0.04
14:05:38.955,-0.01,-0.01,-0.0,-4.53,-0.05,0.08
14:05:38.962,-0.0,-0.01,-0.0,-4.48,0.21,0.08
14:05:38.969,-0.0,-0.0,-0.0,-4.42,0.03,0.12
14:05:38.977,-0.01,-0.01,0.0,-4.42,-0.06,-0.08
14:05:38.984,-0.01,-0.0,0.01,-4.52,-0.03,0.0
14:05:38.991,-0.0,-0.0,-0.01,-4.6,-0.1,0.14
14:05:38.999,-0.0,-0.0,0.0,-4.51,0.13,-0.05
14:05:39.006,-0.0,-0.0,0.01,-4.59,0.05,-0.21
14:05:39.013,-0.0,-0.01,-0.01,-4.5,-0.03,-0.03
14:05:39.020,-0.01,-0.0,0.01,-4.58,0.12,-0.14
14:05:39.028,0.01,-0.0,-0.0,-4.51,0.06,-0.07
14:05:39.035,-0.0,-0.0,-0.01,-4.53,-0.11,-0.07
14:05:39.042,-0.0,0.0,-0.0,-4.45,-0.02,0.01
14:05:39.050,-0.0,-0.0,-0.0,-4.51,0.03,0.08
14:05:39.057,-0.0,-0.01,-0.01,-4.44,-0.18,-0.27
14:05:39.064,-0.0,-0.0,0.0,-4.51,0.05,0.2
14:05:39.071,-0.01,-0.01,-0.0,-4.48,-0.01,0.11
14:05:39.079,-0.01,-0.0,0.0,-4.46,-0.08,0.04
14:05:39.086,-0.0,-0.01,-0.0,-4.5,0.05,-0.03
14:05:39.093,-0.0,-0.0,-0.01,-4.42,-0.07,-0.03
14:05:39.101,-0.0,-0.0,-0.0,-4.45,-0.0,0.02
14:05:39.108,0.02,-0.01,-0.01,-4.48,0.04,0.08
14:05:39.115,0.0,-0.01,-0.0,-4.56,-0.02,-0.1
14:05:39.123,-0.0,-0.0,0.01,-4.34,-0.01,0.05
14:05:39.130,-0.0,-0.0,-0.0,-4.52,-0.02,-0.02
14:05:39.137,-0.0,-0.01,0.0,-4.5,-0.02,-0.08
14:05:39.145,-0.01,-0.0,0.02,-4.37,-0.0,0.08
14:05:39.152,-0.0,-0.0,0.0,-4.44,-0.09,-0.07
14:05:39.159,-0.01,-0.01,-0.0,-4.37,-0.06,-0.01
14:05:39.166,-0.0,-0.0,-0.01,-4.4,-0.11,-0.05
14:05:39.174,-0.0,-0.0,-0.0,-4.41,-0.08,-0.15
14:05:39.181,-0.01,-0.01,-0.0,-4.55,-0.01,0.03
14:05:39.188,-0.0,-0.0,0.0,-4.62,-0.1,-0.1
14:05:39.196,-0.0,0.0,-0.0,-4.47,-0.24,0.02
14:05:39.203,-0.0,0.01,-0.01,-4.41,0.05,-0.07
14:05:39.210,-0.0,-0.01,0.01,-4.56,-0.03,-0.01
14:05:39.217,-0.0,-0.0,-0.01,-4.51,-0.04,0.02
14:05:39.225,-0.02,-0.0,-0.01,-4.43,-0.04,-0.17
14:05:39.232,0.0,-0.0,-0.0,-4.39,0.11,0.06
14:05:39.239,-0.0,0.0,0.0,-4.45,0.06,0.03
14:05:39.247,-0.01,-0.0,-0.01,-4.44,0.11,-0.04
14:05:39.254,-0.0,-0.0,0.0,-4.48,-0.03,0.05
14:05:39.261,-0.0,0.0,-0.0,-4.43,-0.01,0.09
14:05:39.268,-0.02,-0.01,0.0,-4.43,0.06,0.09
14:05:39.276,-0.01,-0.0,-0.0,-4.48,0.08,0.01
14:05:39.283,-0.01,-0.02,0.01,-4.55,0.04,-0.11
14:05:39.290,-0.0,-0.01,0.0,-4.51,-0.14,0.16
14:05:39.298,0.0,0.0,0.0,-4.56,-0.03,0.05
14:05:39.305,-0.01,-0.0,0.02,-4.44,-0.07,0.07
14:05:39.312,-0.0,-0.0,0.0,-4.39,0.05,0.02
14:05:39.319,-0.0,-0.01,-0.01,-4.6,0.24,-0.1
14:05:39.327,0.02,-0.0,-0.0,-4.53,-0.01,-0.01
14:05:39.334,-0.0,-0.0,0.01,-4.56,-0.0,0.05
14:05:39.341,-0.0,-0.0,0.0,-4.5,0.04,0.09
14:05:39.349,0.01,-0.0,0.0,-4.5,0.02,0.02
14:05:39.356,-0.01,-0.01,-0.0,-4.5,-0.02,0.04
14:05:39.363,-0.0,-0.0,-0.01,-4.56,0.01,0.01
14:05:39.370,-0.01,-0.0,0.0,-4.6,-0.13,0.03
14:05:39.378,-0.0,-0.01,0.01,-4.52,0.16,-0.07
14:05:39.385,-0.0,-0.01,-0.0,-4.51,-0.08,0.02
14:05:39.392,-0.01,-0.0,-0.0,-4.44,0.08,-0.01
14:05:39.400,-0.01,-0.01,0.0,-4.52,-0.01,0.1
14:05:39.407,-0.01,-0.0,-0.01,-4.4,0.08,-0.16
14:05:39.414,-0.0,0.0,0.0,-4.34,-0.04,-0.03
14:05:39.421,-0.0,0.0,-0.01,-4.42,0.02,0.05
14:05:39.429,0.01,0.0,0.0,-4.42,-0.0,0.04
14:05:39.436,-0.0,-0.01,0.0,-4.6,0.07,0.0
14:05:39.443,-0.01,-0.0,-0.0,-4.53,-0.06,-0.18
14:05:39.451,-0.0,-0.0,0.02,-4.39,0.07,-0.13
14:05:39.458,0.0,0.0,-0.01,-4.44,-0.02,-0.01
14:05:39.465,-0.0,-0.02,0.02,-4.44,0.02,-0.12
14:05:39.472,-0.0,-0.01,-0.0,-4.44,-0.01,-0.08
14:05:39.480,-0.01,-0.0,-0.01,-4.5,-0.02,0.03
14:05:39.487,-0.01,-0.0,0.01,-4.39,-0.08,0.06
14:05:39.494,-0.0,-0.0,-0.0,-4.48,-0.05,0.05
14:05:39.501,-0.0,-0.0,0.0,-4.48,-0.04,0.02
14:05:39.509,-0.0,-0.0,0.01,-4.5,0.17,0.05
14:05:39.516,-0.0,-0.0,0.0,-4.37,0.05,0.09
14:05:39.523,-0.01,-0.0,0.0,-4.5,0.02,-0.01
14:05:39.531,-0.0,-0.0,-0.0,-4.61,-0.02,-0.05
14:05:39.538,-0.0,-0.0,0.0,-4.44,-0.0,-0.14
14:05:39.545,0.0,-0.0,-0.0,-4.63,0.04,-0.1
14:05:39.552,-0.0,-0.01,0.0,-4.49,0.03,0.1
14:05:39.560,-0.01,-0.01,0.0,-4.41,-0.1,-0.18
14:05:39.567,-0.0,-0.0,0.0,-4.44,-0.1,-0.05
14:05:39.574,-0.01,-0.01,-0.0,-4.5,-0.08,0.15
14:05:39.582,-0.0,-0.01,0.0,-4.36,0.05,-0.14
14:05:39.589,-0.01,-0.0,-0.0,-4.59,0.06,-0.08
14:05:39.596,-0.01,-0.0,-0.0,-4.6,0.08,0.02
14:05:39.603,-0.0,0.0,0.0,-4.47,0.18,0.02
14:05:39.611,-0.0,-0.0,-0.01,-4.47,0.07,0.04
14:05:39.618,-0.0,-0.01,-0.0,-4.5,-0.11,-0.04
14:05:39.625,0.0,-0.01,0.0,-4.44,-0.14,0.06
14:05:39.633,0.01,-0.0,0.0,-4.53,-0.19,0.07
14:05:39.640,-0.0,-0.01,-0.01,-4.47,-0.16,-0.06
14:05:39.647,-0.0,0.0,0.0,-4.47,-0.06,0.01
14:05:39.654,0.01,0.01,-0.01,-4.44,0.11,0.01
14:05:39.662,0.0,-0.01,0.0,-4.6,0.09,-0.01
14:05:39.669,-0.0,-0.0,-0.0,-4.37,-0.05,-0.1
14:05:39.676,-0.0,-0.0,0.0,-4.34,0.02,-0.11
14:05:39.684,-0.0,-0.0,0.0,-4.44,0.08,0.01
14:05:39.691,-0.0,-0.01,-0.0,-4.39,0.05,0.0
14:05:39.698,-0.02,-0.0,-0.01,-4.45,0.07,0.05
14:05:39.705,-0.01,-0.0,0.0,-4.46,0.05,-0.04
14:05:39.713,-0.01,-0.0,0.0,-4.39,-0.11,-0.05
14:05:39.720,-0.0,-0.01,-0.0,-4.41,0.19,-0.05
14:05:39.727,-0.0,-0.01,-0.0,-4.47,0.07,-0.09
14:05:39.734,0.0,-0.01,-0.0,-4.58,-0.12,-0.01
14:05:39.742,-0.0,-0.0,-0.01,-4.59,0.06,0.02
14:05:39.749,-0.0,-0.01,-0.01,-4.65,0.05,-0.15
14:05:39.756,-0.01,-0.0,-0.01,-4.47,-0.02,0.05
14:05:39.764,-0.0,0.0,0.01,-4.5,-0.02,-0.08
14:05:39.771,-0.0,-0.0,0.01,-4.49,0.15,-0.02
14:05:39.778,-0.0,0.0,0.01,-4.54,0.08,-0.03
14:05:39.785,0.0,-0.0,-0.0,-4.44,0.14,0.02
14:05:39.793,0.01,-0.0,0.0,-4.53,-0.01,0.0
14:05:39.800,-0.01,-0.0,0.01,-4.45,-0.08,0.03
14:05:39.807,-0.01,-0.01,0.0,-4.44,-0.0,-0.05
14:05:39.815,-0.02,0.01,-0.0,-4.62,0.05,0.14
14:05:39.822,-0.01,0.0,-0.0,-4.56,-0.05,-0.08
14:05:39.829,-0.0,-0.0,0.0,-4.48,0.05,-0.01
14:05:39.836,-0.01,-0.0,-0.01,-4.51,-0.03,-0.05
14:05:39.844,0.01,-0.0,0.0,-4.53,0.07,-0.13
14:05:39.851,-0.0,-0.01,0.0,-4.54,0.01,-0.04
14:05:39.858,-0.0,-0.0,0.02,-4.66,-0.12,0.01
14:05:39.865,0.0,0.0,-0.0,-4.49,-0.05,0.14
14:05:39.873,-0.0,-0.01,0.0,-4.42,0.02,0.11
14:05:39.880,-0.0,-0.01,0.01,-4.46,0.02,-0.12
14:05:39.887,-0.01,-0.01,0.0,-4.54,0.04,-0.01
14:05:39.895,-0.0,-0.0,0.0,-4.5,0.03,0.1
14:05:39.902,-0.01,0.01,0.0,-4.5,0.11,-0.04
14:05:39.909,-0.0,0.0,-0.01,-4.61,0.06,-0.06
14:05:39.917,-0.0,-0.0,-0.01,-4.45,-0.02,0.14
14:05:39.924,-0.01,0.0,-0.0,-4.46,0.03,-0.13
14:05:39.931,0.0,-0.0,-0.0,-4.44,-0.08,-0.11
14:05:39.938,-0.0,-0.02,-0.0,-4.34,-0.16,-0.11
14:05:39.946,-0.0,-0.0,0.0,-4.37,0.03,0.08
14:05:39.953,-0.01,-0.0,-0.01,-4.38,0.03,-0.16
14:05:39.960,-0.01,-0.0,0.0,-4.38,0.04,0.02
14:05:39.967,0.0,-0.01,-0.01,-4.51,0.01,0.11
14:05:39.975,-0.0,-0.0,0.0,-4.5,0.1,0.01
14:05:39.982,-0.01,-0.02,-0.0,-4.5,-0.0,0.01
14:05:39.989,-0.01,-0.0,-0.0,-4.41,-0.03,0.05
14:05:39.997,-0.01,-0.0,-0.0,-4.47,0.02,0.02
14:05:40.004,-0.01,-0.0,-0.0,-4.54,0.08,-0.06
14:05:40.011,0.0,-0.0,-0.01,-4.45,-0.01,-0.03
14:05:40.018,-0.01,-0.01,-0.0,-4.42,0.02,-0.04
14:05:40.026,-0.0,-0.0,-0.0,-4.4,-0.17,0.13
14:05:40.033,-0.01,-0.01,0.01,-4.61,-0.0,-0.05
14:05:40.040,-0.0,0.01,-0.0,-4.5,-0.04,-0.14
14:05:40.048,-0.0,-0.0,0.01,-4.51,0.11,-0.03
14:05:40.055,-0.0,-0.0,-0.0,-4.51,-0.02,0.02
14:05:40.062,-0.01,-0.0,-0.01,-4.52,0.1,-0.21
14:05:40.069,-0.01,0.0,-0.0,-4.49,-0.12,-0.11
14:05:40.077,0.0,-0.0,0.0,-4.31,-0.01,-0.11
14:05:40.084,-0.0,-0.0,-0.01,-4.46,0.05,0.11
14:05:40.094,-0.0,-0.0,0.01,-4.49,0.01,-0.01
14:05:40.102,-0.01,0.01,0.0,-4.52,0.04,-0.05
14:05:40.109,0.01,-0.0,0.01,-4.44,0.14,0.08
14:05:40.117,0.01,-0.0,-0.01,-4.45,0.03,-0.01
14:05:40.125,0.0,-0.01,-0.01,-4.47,-0.18,0.14
14:05:40.132,-0.01,-0.0,-0.0,-4.51,0.06,0.03
14:05:40.140,-0.01,-0.01,-0.01,-4.56,0.05,0.02
14:05:40.147,-0.0,-0.0,0.0,-4.44,0.08,-0.08
14:05:40.154,0.01,-0.0,0.02,-4.45,0.07,0.05
14:05:40.162,-0.01,-0.01,-0.01,-4.35,0.06,-0.08
14:05:40.169,-0.01,-0.01,-0.0,-4.41,-0.04,-0.01
14:05:40.176,0.01,-0.01,0.01,-4.47,-0.13,-0.12
14:05:40.183,0.0,-0.01,0.0,-4.5,0.11,0.06
14:05:40.191,-0.0,-0.01,0.0,-4.52,0.05,-0.06
14:05:40.198,-0.01,-0.0,0.0,-4.38,-0.16,-0.07
14:05:40.205,-0.0,-0.0,0.0,-4.44,-0.18,-0.08
14:05:40.212,0.0,-0.01,0.0,-4.41,-0.02,0.02
14:05:40.219,-0.0,-0.0,-0.0,-4.58,-0.02,-0.08
14:05:40.227,-0.0,-0.0,0.0,-4.53,0.09,0.04
14:05:40.234,-0.01,-0.0,0.0,-4.41,-0.02,-0.03
14:05:40.241,-0.01,0.0,-0.01,-4.56,-0.01,0.02
14:05:40.248,-0.01,-0.0,0.01,-4.44,0.02,0.03
14:05:40.255,-0.01,-0.0,-0.0,-4.49,0.1,0.02
14:05:40.262,-0.01,-0.01,0.0,-4.44,-0.05,0.06
14:05:40.269,-0.0,0.0,-0.01,-4.53,0.05,-0.16
14:05:40.277,-0.0,-0.0,0.0,-4.4,-0.03,-0.06
14:05:40.284,-0.01,0.0,0.0,-4.57,0.07,0.01
14:05:40.291,-0.0,-0.0,0.01,-4.55,-0.04,-0.05
14:05:40.298,-0.0,-0.0,-0.01,-4.37,-0.0,0.02
14:05:40.305,-0.01,-0.01,0.0,-4.44,0.08,-0.08
14:05:40.313,-0.01,-0.0,-0.0,-4.46,-0.02,-0.01
14:05:40.320,-0.0,-0.0,0.01,-4.32,0.17,-0.06
14:05:40.327,-0.01,-0.0,-0.0,-4.45,-0.1,0.02
14:05:40.334,-0.0,-0.0,0.0,-4.52,-0.13,-0.01
14:05:40.342,-0.01,-0.0,0.0,-4.44,0.01,0.11
14:05:40.349,-0.01,-0.0,0.0,-4.45,-0.1,0.03
14:05:40.356,-0.01,-0.0,0.01,-4.48,0.03,-0.11
14:05:40.364,-0.0,0.0,-0.0,-4.33,-0.02,-0.05
14:05:40.371,-0.01,-0.01,-0.0,-4.47,0.14,-0.18
14:05:40.378,-0.01,-0.01,-0.01,-4.44,-0.06,0.17
14:05:40.386,-0.0,-0.01,-0.0,-4.47,-0.0,0.17
14:05:40.393,-0.01,-0.02,-0.0,-4.4,-0.09,0.05
14:05:40.400,-0.0,-0.01,-0.0,-4.63,-0.08,0.01
14:05:40.407,-0.0,-0.0,-0.0,-4.42,-0.1,0.02
14:05:40.415,0.01,-0.02,-0.0,-4.63,0.05,0.08
14:05:40.422,-0.01,0.0,-0.0,-4.62,0.01,-0.05
14:05:40.429,-0.01,-0.01,0.01,-4.29,0.01,-0.03
14:05:40.437,-0.0,0.0,-0.01,-4.43,-0.0,0.04
14:05:40.444,-0.0,-0.0,0.0,-4.57,-0.05,-0.03
14:05:40.451,-0.0,-0.01,-0.01,-4.46,0.01,0.15
14:05:40.458,-0.0,-0.0,0.0,-4.59,-0.0,-0.11
14:05:40.466,-0.01,-0.0,0.01,-4.57,-0.2,-0.05
14:05:40.473,0.01,-0.01,-0.0,-4.45,0.02,-0.15
14:05:40.480,-0.0,-0.01,0.0,-4.61,0.04,-0.1
14:05:40.488,-0.01,-0.01,0.01,-4.5,0.24,-0.18
14:05:40.495,-0.0,-0.0,-0.01,-4.43,0.05,0.04
14:05:40.502,-0.0,-0.0,-0.0,-4.47,0.02,-0.05
14:05:40.509,-0.0,-0.01,0.0,-4.46,-0.1,-0.08
14:05:40.517,-0.01,-0.0,-0.0,-4.47,0.07,0.03
14:05:40.524,-0.01,-0.01,-0.01,-4.58,0.02,0.24
14:05:40.531,-0.0,-0.0,-0.0,-4.38,0.06,0.03
14:05:40.539,-0.01,0.0,0.01,-4.53,-0.05,-0.18
14:05:40.546,-0.01,-0.0,0.01,-4.44,-0.13,-0.05
14:05:40.553,-0.01,-0.01,-0.01,-4.43,0.07,-0.05
14:05:40.561,-0.01,-0.0,-0.0,-4.48,-0.05,-0.06
14:05:40.568,-0.0,0.0,0.01,-4.61,-0.05,0.05
14:05:40.575,0.01,0.01,0.01,-4.54,-0.14,0.22
14:05:40.582,-0.0,-0.0,0.0,-4.38,0.08,-0.11
14:05:40.590,-0.01,0.0,-0.01,-4.44,0.02,-0.04
14:05:40.597,-0.0,-0.01,-0.0,-4.45,0.04,0.08
14:05:40.604,-0.01,-0.01,-0.0,-4.44,-0.0,0.01
14:05:40.612,-0.0,-0.0,0.0,-4.52,-0.09,-0.16
14:05:40.619,0.0,-0.01,-0.0,-4.4,-0.04,-0.01
14:05:40.626,-0.0,-0.0,0.0,-4.43,-0.09,-0.03
14:05:40.634,-0.01,-0.01,-0.0,-4.44,-0.06,0.08
14:05:40.641,-0.0,-0.0,0.0,-4.53,-0.02,-0.03
14:05:40.648,-0.01,-0.0,0.02,-4.56,-0.15,0.05
14:05:40.655,-0.0,0.0,-0.01,-4.64,-0.11,0.08
14:05:40.663,0.01,-0.01,0.0,-4.53,0.05,-0.11
14:05:40.670,-0.01,-0.0,0.0,-4.47,-0.06,0.15
14:05:40.677,0.01,-0.01,-0.0,-4.5,-0.05,-0.04
14:05:40.685,-0.0,-0.01,0.0,-4.38,0.02,0.05
14:05:40.692,-0.0,-0.02,-0.0,-4.57,0.12,0.15
14:05:40.699,-0.01,-0.01,-0.01,-4.47,0.08,-0.15
14:05:40.706,-0.01,-0.0,0.0,-4.51,0.06,0.04
14:05:40.714,-0.01,-0.0,-0.01,-4.54,-0.05,-0.03
14:05:40.721,-0.01,-0.0,0.0,-4.59,0.03,-0.05
14:05:40.728,0.01,-0.01,0.0,-4.51,0.02,-0.22
14:05:40.736,-0.0,-0.0,0.02,-4.43,0.02,-0.18
14:05:40.743,-0.01,-0.01,-0.01,-4.42,0.09,-0.13
14:05:40.750,-0.0,-0.0,0.0,-4.45,0.18,0.05
14:05:40.758,-0.0,-0.01,0.0,-4.54,0.04,-0.01
14:05:40.765,-0.01,-0.0,-0.01,-4.5,0.11,0.04
14:05:40.772,-0.01,0.0,-0.0,-4.5,0.08,-0.07
14:05:40.779,0.0,-0.0,-0.0,-4.39,0.01,-0.02
14:05:40.787,-0.01,0.01,-0.0,-4.47,-0.02,-0.08
14:05:40.794,-0.01,-0.0,0.02,-4.4,-0.02,-0.03
14:05:40.801,-0.0,-0.0,0.0,-4.39,0.02,-0.13
14:05:40.809,-0.0,-0.01,-0.0,-4.44,-0.14,-0.21
14:05:40.816,-0.01,-0.0,0.0,-4.44,0.14,-0.03
14:05:40.823,-0.0,-0.01,0.0,-4.43,-0.05,-0.12
14:05:40.831,-0.0,-0.01,0.02,-4.55,-0.06,0.11
14:05:40.838,-0.0,-0.01,-0.0,-4.47,-0.08,-0.08
14:05:40.845,-0.0,-0.0,-0.01,-4.57,-0.05,-0.1
14:05:40.852,-0.0,-0.01,0.0,-4.47,0.07,-0.11
14:05:40.860,-0.0,-0.01,0.0,-4.41,0.11,0.1
14:05:40.867,-0.0,-0.01,-0.01,-4.53,-0.12,-0.08
14:05:40.874,0.0,-0.0,0.02,-4.65,0.1,-0.13
14:05:40.882,-0.01,0.01,0.0,-4.6,-0.08,-0.08
14:05:40.889,-0.0,-0.0,0.01,-4.39,0.05,-0.11
14:05:40.896,-0.0,-0.01,0.0,-4.55,-0.04,0.04
14:05:40.903,-0.01,-0.0,-0.0,-4.43,-0.17,-0.04
14:05:40.911,0.01,0.0,-0.0,-4.51,-0.05,0.02
14:05:40.918,-0.0,-0.0,-0.01,-4.5,-0.06,-0.05
14:05:40.925,-0.0,-0.0,0.01,-4.71,-0.21,0.02
14:05:40.932,-0.0,-0.02,-0.0,-4.38,-0.04,0.06
14:05:40.940,-0.0,-0.01,0.0,-4.44,-0.18,-0.01
14:05:40.947,-0.01,0.0,0.0,-4.47,-0.03,0.14
14:05:40.954,0.01,-0.0,0.01,-4.5,0.02,0.05
14:05:40.962,-0.01,-0.01,0.01,-4.34,-0.11,0.05
14:05:40.969,0.01,-0.0,-0.0,-4.6,0.23,-0.01
14:05:40.976,-0.0,0.0,-0.01,-4.44,0.18,-0.04
14:05:40.983,-0.0,-0.0,0.0,-4.44,0.13,0.0
14:05:40.991,-0.01,0.0,-0.0,-4.5,0.01,-0.06
14:05:40.998,0.0,-0.02,0.02,-4.5,-0.02,-0.05
14:05:41.005,0.0,-0.01,-0.01,-4.55,-0.01,-0.01
14:05:41.013,-0.01,-0.01,0.02,-4.47,-0.14,0.01
14:05:41.020,-0.0,-0.0,-0.0,-4.55,0.02,0.08
14:05:41.027,-0.0,-0.01,-0.0,-4.44,0.01,0.03
14:05:41.034,-0.01,-0.0,0.02,-4.43,-0.08,-0.08
14:05:41.042,-0.01,-0.0,0.0,-4.44,0.08,0.02
14:05:41.049,0.0,-0.01,-0.0,-4.53,-0.14,0.01
14:05:41.056,-0.01,-0.0,0.01,-4.44,0.03,-0.05
14:05:41.063,-0.01,-0.0,0.01,-4.5,0.14,-0.21
14:05:41.071,-0.01,-0.01,-0.0,-4.48,0.09,0.11
14:05:41.078,-0.0,-0.02,-0.01,-4.47,-0.06,0.08
14:05:41.085,-0.01,-0.01,0.0,-4.53,-0.02,0.05
14:05:41.093,-0.0,0.01,0.0,-4.57,-0.09,-0.05
14:05:41.100,-0.0,-0.01,-0.0,-4.56,-0.02,0.01
14:05:41.107,-0.01,-0.0,0.0,-4.37,-0.05,-0.11
14:05:41.114,-0.01,-0.01,0.0,-4.4,0.11,0.06
14:05:41.122,-0.01,0.01,-0.0,-4.4,-0.01,0.02
14:05:41.129,0.01,-0.01,-0.01,-4.46,-0.0,0.05
14:05:41.137,-0.0,-0.0,0.02,-4.39,-0.12,0.0
14:05:41.144,-0.0,-0.01,0.0,-4.59,0.04,0.05
14:05:41.151,-0.0,-0.01,0.0,-4.46,-0.01,-0.14
14:05:41.159,0.0,-0.01,0.0,-4.53,-0.11,-0.01
14:05:41.166,-0.01,-0.01,0.01,-4.46,-0.05,0.05
14:05:41.173,0.0,-0.01,0.0,-4.51,-0.13,-0.04
14:05:41.180,0.0,0.0,0.01,-4.31,-0.1,0.08
14:05:41.188,0.01,0.0,0.0,-4.42,0.07,0.12
14:05:41.195,-0.0,-0.0,-0.01,-4.37,-0.02,-0.02
14:05:41.202,-0.01,-0.01,0.01,-4.41,-0.14,-0.22
14:05:41.210,0.01,-0.0,0.0,-4.47,0.14,-0.08
14:05:41.217,-0.0,-0.0,-0.0,-4.4,-0.18,-0.07
14:05:41.224,0.01,-0.0,0.0,-4.54,-0.09,0.22
14:05:41.231,-0.0,-0.01,-0.0,-4.43,-0.15,-0.01
14:05:41.239,-0.0,-0.0,-0.0,-4.53,0.02,0.08
14:05:41.246,-0.01,-0.0,-0.0,-4.44,0.05,0.16
14:05:41.253,-0.01,0.0,0.0,-4.27,0.04,-0.11
14:05:41.261,-0.0,-0.0,0.01,-4.46,-0.03,-0.05
14:05:41.268,-0.0,-0.0,0.01,-4.35,-0.06,0.08
14:05:41.275,-0.0,-0.0,0.0,-4.54,-0.02,-0.12
14:05:41.282,-0.0,-0.01,-0.0,-4.49,-0.13,0.02
14:05:41.290,-0.02,0.0,0.01,-4.44,-0.05,-0.1
14:05:41.297,-0.0,-0.0,0.0,-4.54,-0.01,-0.13
14:05:41.304,-0.01,-0.0,-0.0,-4.42,0.15,-0.01
14:05:41.312,0.01,-0.02,-0.0,-4.47,-0.11,0.08
14:05:41.319,-0.0,-0.01,0.0,-4.47,0.08,0.08
14:05:41.326,-0.0,-0.01,0.01,-4.48,-0.05,-0.01
14:05:41.333,-0.0,0.01,0.0,-4.44,-0.15,-0.04
14:05:41.341,-0.0,-0.0,0.01,-4.45,-0.08,0.1
14:05:41.348,-0.01,-0.02,-0.0,-4.51,-0.13,-0.07
14:05:41.355,-0.01,0.0,0.02,-4.41,0.06,-0.01
14:05:41.363,-0.0,-0.0,0.0,-4.52,-0.1,-0.03
14:05:41.370,-0.02,0.0,0.0,-4.45,-0.06,-0.05
14:05:41.377,-0.0,-0.0,0.01,-4.53,-0.18,0.11
14:05:41.385,-0.01,-0.02,0.01,-4.37,-0.08,-0.04
14:05:41.392,-0.0,-0.0,0.01,-4.44,-0.12,-0.01
14:05:41.399,-0.01,-0.0,0.0,-4.48,-0.06,0.04
14:05:41.406,0.0,-0.0,-0.01,-4.42,0.05,-0.01
14:05:41.414,-0.01,-0.0,0.0,-4.43,0.07,0.12
14:05:41.421,-0.0,-0.01,0.0,-4.59,0.19,-0.01
14:05:41.428,-0.0,0.01,-0.0,-4.4,-0.08,0.02
14:05:41.436,-0.01,-0.01,0.01,-4.44,0.01,-0.18
14:05:41.443,-0.01,-0.0,-0.0,-4.41,-0.14,0.02
14:05:41.450,0.0,-0.0,0.0,-4.4,0.02,-0.05
14:05:41.457,0.0,-0.01,-0.0,-4.4,-0.15,-0.1
14:05:41.465,-0.01,-0.0,-0.0,-4.35,-0.08,-0.06
14:05:41.472,-0.01,-0.0,0.01,-4.47,0.02,-0.05
14:05:41.479,-0.0,-0.0,-0.0,-4.34,-0.01,0.06
14:05:41.487,-0.01,-0.0,-0.0,-4.48,0.12,-0.01
14:05:41.494,-0.01,-0.02,0.01,-4.38,0.02,0.1
14:05:41.501,-0.0,-0.01,0.01,-4.52,-0.0,-0.07
14:05:41.508,-0.0,-0.0,-0.01,-4.43,-0.02,0.01
14:05:41.516,-0.0,-0.01,-0.01,-4.42,-0.07,-0.09
14:05:41.523,-0.0,-0.0,0.0,-4.56,-0.06,0.1
14:05:41.530,-0.0,0.0,0.0,-4.39,0.03,-0.01
14:05:41.537,-0.0,-0.01,-0.0,-4.53,-0.08,-0.01
14:05:41.545,-0.0,-0.01,0.0,-4.47,0.01,-0.13
14:05:41.552,-0.0,-0.0,0.01,-4.51,-0.02,-0.01
14:05:41.559,-0.01,-0.0,0.01,-4.51,0.03,0.02
14:05:41.567,-0.0,0.0,0.0,-4.57,0.03,-0.13
14:05:41.574,-0.0,-0.01,0.02,-4.61,-0.03,-0.21
14:05:41.581,0.0,-0.0,-0.0,-4.53,-0.02,-0.11
14:05:41.589,-0.01,-0.0,-0.0,-4.39,0.02,0.01
14:05:41.596,-0.0,-0.0,-0.01,-4.37,0.08,0.14
14:05:41.603,-0.0,-0.0,0.0,-4.48,-0.01,0.02
14:05:41.610,-0.0,-0.0,-0.0,-4.61,0.02,-0.09
14:05:41.618,-0.0,-0.01,-0.01,-4.48,-0.04,-0.07
14:05:41.625,-0.0,0.0,-0.0,-4.56,-0.22,-0.1
14:05:41.632,-0.01,0.01,0.0,-4.54,0.07,0.07
14:05:41.640,-0.0,-0.01,-0.0,-4.47,0.16,-0.08
14:05:41.647,0.0,-0.0,-0.0,-4.53,0.06,-0.01
14:05:41.654,-0.0,-0.01,0.0,-4.45,0.03,-0.13
14:05:41.661,-0.0,-0.01,0.0,-4.42,0.1,0.01
14:05:41.669,-0.01,-0.0,-0.01,-4.51,-0.0,-0.07
14:05:41.676,-0.0,-0.0,0.01,-4.39,0.01,-0.11
14:05:41.683,-0.01,-0.0,-0.0,-4.6,-0.09,-0.07
14:05:41.691,-0.01,-0.0,-0.0,-4.59,0.04,-0.01
14:05:41.698,-0.0,-0.01,-0.0,-4.48,-0.15,-0.18
14:05:41.705,-0.0,-0.0,-0.0,-4.57,-0.08,-0.07
14:05:41.712,0.01,-0.01,0.0,-4.51,-0.0,-0.1
14:05:41.720,0.0,-0.01,-0.0,-4.37,0.11,0.1
14:05:41.727,-0.0,-0.0,-0.0,-4.48,-0.15,-0.12
14:05:41.734,-0.01,-0.01,-0.0,-4.5,-0.0,-0.05
14:05:41.741,-0.0,-0.0,-0.0,-4.37,-1.7,-0.07
14:05:41.749,-0.0,-0.01,0.0,-4.44,0.01,0.08
14:05:41.756,0.0,-0.0,0.0,-4.35,0.03,-0.01
14:05:41.763,-0.0,-0.0,0.01,-4.44,-0.0,-0.08
14:05:41.771,-0.0,-0.02,-0.0,-4.63,-0.02,0.06
14:05:41.778,-0.01,-0.02,0.0,-4.65,-0.04,0.04
14:05:41.785,-0.0,-0.0,0.01,-4.32,-0.0,0.08
14:05:41.792,-0.01,-0.01,-0.0,-4.41,0.01,-0.05
14:05:41.800,-0.0,-0.0,0.0,-4.5,0.06,-0.03
14:05:41.807,-0.01,-0.01,-0.0,-4.36,0.11,0.1
14:05:41.814,0.01,0.0,0.0,-4.47,0.01,0.16
14:05:41.821,-0.01,-0.01,-0.0,-4.47,0.16,-0.13
14:05:41.829,-0.0,-0.01,0.0,-4.4,0.1,-0.06
14:05:41.836,-0.0,-0.0,0.0,-4.48,-0.08,0.11
14:05:41.843,0.0,-0.0,0.0,-4.4,-0.24,0.07
14:05:41.851,-0.01,-0.01,0.01,-4.34,0.05,-0.17
14:05:41.858,-0.0,0.0,-0.01,-4.42,-0.05,-0.14
14:05:41.865,-0.0,-0.0,0.0,-4.52,-0.13,-0.03
14:05:41.872,-0.0,-0.01,-0.0,-4.63,0.11,-0.12
14:05:41.880,-0.0,-0.0,-0.01,-4.57,0.1,0.02
14:05:41.887,-0.0,-0.0,0.0,-4.36,-0.02,-0.07
14:05:41.894,-0.01,-0.0,0.01,-4.41,-0.06,-0.08
14:05:41.902,0.01,-0.0,-0.01,-4.44,0.03,-0.01
14:05:41.909,-0.0,-0.0,-0.0,-4.48,-0.21,-0.06
14:05:41.916,-0.01,-0.0,-0.0,-4.46,0.02,-0.01
14:05:41.923,0.0,-0.01,0.02,-4.5,0.11,0.15
14:05:41.931,-0.0,0.0,0.0,-4.53,0.02,-0.05
14:05:41.938,-0.0,-0.01,-0.01,-4.44,-0.11,-0.1
14:05:41.945,-0.01,-0.01,-0.0,-4.4,0.18,-0.04
14:05:41.952,-0.01,-0.0,0.0,-4.47,-0.09,0.0
14:05:41.960,-0.0,0.01,0.02,-4.57,-0.02,-0.05
14:05:41.967,-0.0,-0.0,0.0,-4.36,-0.1,-0.08
14:05:41.974,0.0,-0.0,-0.0,-4.52,-0.15,-0.06
14:05:41.982,0.01,-0.0,0.02,-4.4,-0.12,-0.04
14:05:41.989,0.0,-0.01,0.0,-4.48,-0.23,0.03
14:05:41.996,-0.01,-0.0,-0.0,-4.46,0.12,-0.09
14:05:42.003,-0.0,-0.01,0.01,-4.5,-0.15,-0.05
14:05:42.011,-0.01,-0.01,-0.0,-4.43,0.11,0.02
14:05:42.018,-0.01,-0.0,-0.0,-4.37,-0.0,-0.01
14:05:42.025,-0.01,-0.01,0.0,-4.4,-0.24,-0.24
14:05:42.032,-0.0,-0.01,0.01,-4.54,0.01,-0.08
14:05:42.040,-0.01,-0.01,-0.0,-4.51,-0.07,-0.14
14:05:42.047,-0.01,-0.0,0.0,-4.35,0.21,0.1
14:05:42.054,0.0,-0.0,0.0,-4.4,0.1,-0.17
14:05:42.062,0.01,-0.0,0.0,-4.56,0.14,-0.05
14:05:42.069,0.01,0.01,0.01,-4.45,0.12,-0.08
14:05:42.076,-0.01,-0.0,0.0,-4.52,-0.16,-0.05
14:05:42.083,0.01,0.01,0.0,-4.37,-0.08,-0.01
14:05:42.091,-0.0,0.0,-0.01,-4.54,-0.06,-0.17
14:05:42.098,0.0,-0.0,0.01,-4.58,0.18,-0.01
14:05:42.105,-0.01,-0.01,-0.0,-4.4,0.05,0.05
14:05:42.112,-0.0,-0.01,0.01,-4.52,-0.08,-0.06
14:05:42.120,-0.01,-0.0,-0.0,-4.45,-0.04,-0.05
14:05:42.127,-0.01,-0.01,0.0,-4.41,0.14,-0.08
14:05:42.135,-0.0,-0.0,-0.0,-4.39,-0.09,0.07
14:05:42.142,-0.01,0.0,-0.0,-4.42,0.07,-0.04
14:05:42.149,-0.0,-0.01,-0.01,-4.5,0.04,0.09
14:05:42.157,-0.0,-0.0,-0.0,-4.55,0.05,0.02
14:05:42.164,-0.0,0.0,0.01,-4.43,0.08,-0.09
14:05:42.171,-0.0,0.0,0.0,-4.36,-0.05,-0.06
14:05:42.179,-0.0,0.0,0.0,-4.56,0.18,0.07
14:05:42.186,-0.0,-0.01,0.0,-4.54,-0.06,-0.05
14:05:42.193,-0.0,-0.0,0.0,-4.38,0.21,0.17
14:05:42.200,-0.0,-0.0,0.0,-4.52,0.06,-0.06
14:05:42.208,-0.01,-0.01,0.0,-4.47,0.02,-0.03
14:05:42.215,-0.0,-0.01,0.0,-4.34,-0.18,-0.13
14:05:42.222,0.0,-0.02,-0.01,-4.6,-0.04,0.04
14:05:42.230,-0.01,-0.0,0.0,-4.43,0.03,-0.14
14:05:42.237,0.01,-0.01,0.01,-4.44,-0.04,-0.02
14:05:42.244,-0.0,-0.0,-0.01,-4.45,0.07,-0.02
14:05:42.251,0.0,-0.0,-0.0,-4.59,-0.02,-0.06
14:05:42.259,0.01,-0.0,0.02,-4.4,-0.06,0.07
14:05:42.266,0.0,-0.0,-0.0,-4.55,-0.08,-0.1
14:05:42.273,-0.0,-0.0,-0.0,-4.51,-0.01,-0.09
14:05:42.281,-0.01,-0.0,0.01,-4.39,-0.15,0.05
14:05:42.288,-0.01,-0.01,0.01,-4.59,-0.06,-0.15
14:05:42.295,0.0,-0.01,-0.0,-4.56,-0.3,0.15
14:05:42.302,-0.01,-0.01,0.0,-4.31,0.13,0.11
14:05:42.310,-0.0,-0.0,0.0,-4.41,0.15,-0.12
14:05:42.317,-0.0,-0.01,0.0,-4.44,-0.02,0.08
14:05:42.324,-0.0,0.0,-0.0,-4.49,-0.11,0.08
14:05:42.332,-0.0,-0.0,0.0,-4.53,0.08,-0.03
14:05:42.339,-0.0,-0.0,0.0,-4.39,0.07,0.01
14:05:42.346,0.0,-0.01,0.0,-4.56,0.07,0.02
14:05:42.353,-0.01,-0.01,0.0,-4.47,0.12,-0.04
14:05:42.361,-0.01,-0.0,-0.0,-4.47,0.03,-0.14
14:05:42.368,-0.0,-0.01,-0.0,-4.46,0.08,-0.05
14:05:42.375,0.0,-0.0,-0.01,-4.52,-0.07,-0.02
14:05:42.382,0.0,-0.01,-0.0,-4.43,-0.06,0.04
14:05:42.390,-0.01,-0.01,0.0,-4.47,0.08,0.07
14:05:42.397,-0.0,-0.01,0.0,-4.34,-0.08,0.0
14:05:42.404,-0.01,0.0,-0.01,-4.51,-0.14,-0.05
14:05:42.412,0.0,-0.0,0.0,-4.44,-0.15,-0.2
14:05:42.419,0.0,-0.0,-0.0,-4.46,0.05,-0.03
14:05:42.426,-0.01,-0.0,0.0,-4.53,-0.05,0.02
14:05:42.433,0.0,0.0,0.0,-4.4,0.12,-0.17
14:05:42.441,-0.0,-0.0,0.01,-4.37,0.02,-0.02
14:05:42.448,-0.01,-0.0,0.0,-4.58,-0.11,-0.08
14:05:42.455,0.0,-0.0,0.0,-4.37,0.07,0.02
14:05:42.462,-0.01,-0.0,0.0,-4.53,0.05,-0.06
14:05:42.470,-0.01,-0.0,-0.0,-4.39,-0.01,-0.14
14:05:42.477,-0.01,-0.0,0.0,-4.37,0.02,0.11
14:05:42.484,-0.0,-0.01,-0.0,-4.34,-0.04,0.01
14:05:42.491,-0.0,0.0,-0.01,-4.38,-0.08,0.02
14:05:42.499,-0.01,-0.01,-0.0,-4.36,-0.09,0.11
14:05:42.506,-0.01,-0.0,0.0,-4.57,0.05,-0.21
14:05:42.513,-0.0,-0.0,0.01,-4.5,-0.09,-0.02
14:05:42.521,-0.01,-0.01,-0.0,-4.57,0.02,-0.06
14:05:42.528,0.01,-0.0,-0.01,-4.53,0.15,-0.04
14:05:42.535,0.0,-0.01,0.01,-4.53,0.07,-0.02
14:05:42.542,-0.0,-0.01,0.01,-4.66,0.14,-0.15
14:05:42.550,-0.01,-0.0,-0.01,-4.58,-0.05,-0.15
14:05:42.557,0.0,-0.0,0.0,-4.5,0.12,-0.03
14:05:42.564,-0.01,-0.01,0.0,-4.43,-0.07,0.02
14:05:42.572,-0.0,-0.01,0.01,-4.47,0.04,-0.14
14:05:42.579,0.0,-0.01,0.0,-4.46,0.08,0.12
14:05:42.586,-0.02,-0.0,0.0,-4.5,-0.17,0.13
14:05:42.593,-0.01,0.01,0.02,-4.6,-0.05,-0.01
14:05:42.601,-0.01,-0.0,0.0,-4.52,-0.05,0.07
14:05:42.608,-0.0,0.01,0.02,-4.41,-0.08,0.04
14:05:42.615,0.0,-0.0,0.01,-4.47,-0.08,-0.01
14:05:42.622,0.0,-0.01,0.0,-4.63,-0.08,0.06
14:05:42.630,0.02,-0.0,-0.01,-4.31,0.06,0.02
14:05:42.637,0.0,-0.0,-0.0,-4.44,0.08,-0.1
14:05:42.644,-0.01,-0.0,0.0,-4.37,0.01,-0.06
14:05:42.652,-0.0,-0.02,0.0,-4.63,-0.08,-0.01
14:05:42.659,-0.01,-0.0,0.0,-4.56,0.03,-0.11
14:05:42.666,-0.0,-0.01,0.0,-4.5,0.06,-0.06
14:05:42.673,0.01,-0.0,-0.01,-4.53,-0.18,-0.02
14:05:42.681,-0.01,-0.0,0.0,-4.44,0.04,-0.09
14:05:42.688,-0.0,-0.01,0.0,-4.66,-0.09,-0.06
14:05:42.696,-0.0,-0.0,-0.0,-4.39,-0.13,-0.05
14:05:42.703,-0.0,-0.0,0.0,-4.56,-0.01,-0.06
14:05:42.710,-0.0,-0.01,-0.01,-4.47,0.08,-0.01
14:05:42.717,-0.0,0.0,-0.0,-4.43,-0.01,-0.14
14:05:42.725,-0.0,-0.0,-0.0,-4.57,0.05,0.07
14:05:42.732,-0.01,-0.01,-0.0,-4.51,-1.69,0.02
14:05:42.739,-0.0,-0.0,0.0,-4.48,0.06,-0.11
14:05:42.747,-0.01,0.01,0.0,-4.53,0.05,0.01
14:05:42.754,0.0,-0.01,-0.01,-4.43,-0.08,-0.05
14:05:42.761,-0.0,-0.0,-0.01,-4.53,-0.03,-0.14
14:05:42.768,-0.0,-0.0,0.0,-4.39,-0.05,-0.05
14:05:42.776,-0.0,0.0,-0.0,-4.4,-0.0,-0.07
14:05:42.783,0.0,-0.01,0.0,-4.49,0.07,0.05
14:05:42.790,0.01,-0.02,0.01,-4.44,0.09,-0.04
14:05:42.797,-0.0,-0.0,-0.0,-4.44,-0.15,0.02
14:05:42.805,0.0,-0.0,-0.0,-4.34,-0.12,-0.01
14:05:42.812,-0.0,-0.0,-0.01,-4.48,-0.19,-0.01
14:05:42.819,-0.01,-0.01,0.0,-4.51,0.08,-0.08
14:05:42.827,-0.0,-0.0,-0.01,-4.32,-0.06,-0.09
14:05:42.834,-0.0,-0.0,-0.01,-4.45,0.05,0.0
14:05:42.841,-0.01,-0.0,0.0,-4.39,-0.08,0.06
14:05:42.848,-0.01,-0.01,-0.0,-4.6,0.05,-0.14
14:05:42.856,-0.0,-0.01,0.0,-4.48,-0.01,-0.09
14:05:42.863,0.0,-0.01,0.01,-4.43,-0.06,0.17
14:05:42.870,0.02,0.0,0.0,-4.4,0.02,0.16
14:05:42.878,-0.0,-0.01,0.0,-4.42,-0.06,-0.14
14:05:42.885,0.0,-0.0,-0.0,-4.37,-0.1,0.05
14:05:42.892,-0.0,-0.01,0.0,-4.5,-0.01,-0.07
14:05:42.899,-0.0,-0.0,0.0,-4.46,0.09,0.01
14:05:42.907,-0.01,-0.01,0.0,-4.69,-0.18,-0.08
14:05:42.914,-0.01,-0.01,0.02,-4.45,-0.03,-0.08
14:05:42.921,-0.0,-0.0,-0.01,-4.63,0.01,0.02
14:05:42.929,0.01,-0.01,-0.0,-4.34,0.07,-0.13
14:05:42.936,0.01,-0.02,-0.0,-4.45,0.18,-0.11
14:05:42.943,-0.0,-0.01,0.01,-4.39,0.08,0.06
14:05:42.950,-0.01,-0.0,0.02,-4.53,-0.02,-0.01
14:05:42.958,0.01,-0.0,-0.0,-4.53,-0.15,-0.03
14:05:42.965,-0.0,-0.0,0.01,-4.3,0.06,-0.14
14:05:42.972,-0.0,-0.01,-0.0,-4.5,0.09,-0.11
14:05:42.979,0.0,-0.01,0.01,-4.52,0.08,0.02
14:05:42.987,-0.0,-0.01,0.0,-4.35,0.05,-0.08
14:05:42.994,-0.0,0.01,0.0,-4.5,-0.05,0.01
14:05:43.001,-0.0,-0.0,0.01,-4.46,-0.05,-0.06
14:05:43.009,-0.0,-0.01,-0.0,-4.62,-0.01,0.15
14:05:43.016,-0.0,-0.0,0.0,-4.44,0.13,-0.11
14:05:43.023,-0.0,-0.01,-0.0,-4.47,0.15,-0.14
14:05:43.030,-0.0,-0.0,0.0,-4.49,-0.09,-0.07
14:05:43.038,-0.0,-0.0,-0.01,-4.57,-0.11,-0.13
14:05:43.045,-0.0,-0.0,0.0,-4.4,-0.03,0.01
14:05:43.052,-0.0,-0.01,0.01,-4.56,-0.0,0.02
14:05:43.059,-0.0,-0.0,0.0,-4.37,0.19,-0.04
14:05:43.067,0.0,-0.0,0.0,-4.4,0.11,-0.01
14:05:43.074,-0.01,-0.01,-0.0,-4.51,-0.07,0.0
14:05:43.081,-0.01,-0.01,0.0,-4.5,0.02,0.0
14:05:43.088,-0.0,-0.0,-0.01,-4.47,-0.07,-0.12
14:05:43.096,-0.0,-0.0,0.0,-4.44,0.03,0.11
14:05:43.103,-0.0,-0.01,-0.01,-4.62,0.04,-0.1
14:05:43.110,-0.0,-0.02,0.01,-4.56,0.08,0.12
14:05:43.117,-0.01,-0.0,-0.0,-4.44,-0.05,0.01
14:05:43.125,-0.0,-0.0,0.0,-4.58,-0.05,0.03
14:05:43.132,-0.0,-0.0,-0.01,-4.54,0.05,-0.08
14:05:43.140,-0.0,0.0,-0.01,-4.37,0.08,0.21
14:05:43.147,-0.0,-0.0,0.0,-4.61,0.07,-0.08
14:05:43.154,-0.0,-0.0,0.01,-4.53,-0.07,0.01
14:05:43.161,-0.0,-0.0,0.02,-4.43,0.04,0.08
14:05:43.169,-0.01,-0.01,-0.01,-4.52,0.03,0.06
14:05:43.176,-0.0,-0.0,0.01,-4.66,-0.08,-0.14
14:05:43.183,0.01,-0.02,0.0,-4.51,-0.09,0.08
14:05:43.190,-0.0,-0.01,0.01,-4.54,-0.12,-0.08
14:05:43.198,-0.0,-0.0,-0.01,-4.47,0.02,0.04
14:05:43.205,-0.0,-0.0,0.01,-4.47,-0.12,0.14
14:05:43.212,-0.0,-0.0,0.0,-4.44,0.02,0.02
14:05:43.220,0.0,0.0,-0.0,-4.53,0.08,-0.19
14:05:43.227,-0.0,0.0,0.0,-4.48,-0.0,0.02
14:05:43.234,0.0,0.0,0.0,-4.53,-0.05,0.05
14:05:43.241,-0.01,-0.0,-0.0,-4.41,-0.01,-0.01
14:05:43.249,0.0,-0.0,-0.01,-4.42,-0.14,-0.08
14:05:43.256,-0.01,-0.0,0.0,-4.59,0.06,-0.02
14:05:43.263,-0.0,-0.02,0.0,-4.37,-0.01,0.08
14:05:43.271,0.0,0.0,-0.0,-4.5,0.07,-0.08
14:05:43.278,-0.0,-0.01,0.0,-4.57,-0.09,-0.07
14:05:43.285,-0.0,-0.0,-0.01,-4.58,-0.02,-0.01
14:05:43.292,-0.0,-0.01,0.0,-4.78,-0.06,-0.05
14:05:43.300,-0.0,0.0,0.0,-4.53,0.17,0.02
14:05:43.307,-0.0,-0.01,-0.0,-4.48,-0.01,-0.17
14:05:43.314,-0.01,-0.01,-0.0,-4.29,0.2,0.0
14:05:43.322,-0.0,-0.0,-0.0,-4.49,0.07,0.03
14:05:43.329,-0.0,-0.0,0.02,-4.53,-0.02,0.11
14:05:43.336,-0.0,-0.0,0.0,-4.46,-0.01,0.1
14:05:43.343,-0.01,-0.01,0.01,-4.53,0.1,0.04
14:05:43.351,0.0,-0.01,0.01,-4.39,-0.05,-0.1
14:05:43.358,-0.01,-0.0,0.0,-4.4,0.05,-0.11
14:05:43.365,-0.01,-0.0,-0.01,-4.5,-0.04,0.0
14:05:43.372,-0.0,-0.01,-0.0,-4.49,0.02,-0.13
14:05:43.380,-0.0,-0.0,-0.0,-4.51,-0.13,-0.05
14:05:43.387,-0.0,-0.0,-0.0,-4.57,-0.13,0.08
14:05:43.394,-0.01,-0.0,0.0,-4.55,0.12,-0.01
14:05:43.402,-0.0,0.0,-0.0,-4.48,-0.09,-0.11
14:05:43.409,-0.01,-0.0,-0.0,-4.38,-0.08,-0.05
14:05:43.416,-0.01,-0.01,-0.0,-4.5,-0.06,-0.07
14:05:43.423,-0.0,-0.0,0.0,-4.57,0.12,-0.04
14:05:43.431,-0.01,-0.02,-0.01,-4.6,-0.01,0.08
14:05:43.438,-0.0,-0.0,-0.0,-4.44,-0.11,-0.04
14:05:43.445,-0.0,-0.0,-0.01,-4.55,0.08,-0.07
14:05:43.452,-0.01,-0.01,-0.01,-4.46,-0.06,0.01
14:05:43.460,-0.0,-0.0,-0.0,-4.53,0.08,0.26
14:05:43.467,-0.0,0.01,0.01,-4.53,0.19,-0.05
14:05:43.474,-0.0,-0.0,-0.0,-4.56,-0.07,-0.01
14:05:43.482,-0.0,-0.01,-0.0,-4.49,-0.02,-0.14
14:05:43.489,-0.01,-0.0,-0.01,-4.4,-0.02,0.02
14:05:43.496,-0.0,-0.01,0.0,-4.55,0.11,-0.1
14:05:43.503,-0.0,-0.0,-0.0,-4.54,-0.11,0.02
14:05:43.511,-0.0,-0.0,-0.01,-4.45,0.02,0.03
14:05:43.518,-0.01,0.0,0.01,-4.56,0.04,-0.08
14:05:43.525,0.0,-0.01,0.0,-4.61,0.03,-0.09
14:05:43.532,0.0,-0.01,-0.0,-4.5,-0.05,-0.05
14:05:43.540,-0.01,-0.01,-0.01,-4.44,0.08,-0.19
14:05:43.547,-0.01,-0.0,0.01,-4.32,0.01,0.04
14:05:43.554,-0.01,-0.01,0.02,-4.33,0.02,-0.05
14:05:43.561,0.0,-0.0,-0.01,-4.39,0.02,-0.01
14:05:43.569,-0.01,-0.01,0.01,-4.45,-0.03,0.04
14:05:43.576,-0.01,-0.0,0.0,-4.53,-0.04,0.04
14:05:43.583,0.0,-0.01,-0.0,-4.48,-0.11,-0.14
14:05:43.591,-0.0,-0.0,0.0,-4.56,0.04,0.05
14:05:43.598,0.0,-0.01,0.01,-4.53,0.07,0.06
14:05:43.605,0.0,-0.01,0.02,-4.47,0.01,-0.05
14:05:43.612,-0.0,-0.0,0.01,-4.63,0.12,-0.01
14:05:43.620,-0.01,-0.01,-0.0,-4.41,0.03,0.05
14:05:43.627,-0.0,-0.0,0.0,-4.54,-0.02,-0.07
14:05:43.634,-0.0,-0.01,-0.0,-4.53,-0.24,0.08
14:05:43.641,-0.01,-0.01,0.0,-4.49,-0.04,-0.05
14:05:43.649,-0.01,-0.01,-0.0,-4.46,-0.1,-0.06
14:05:43.656,-0.0,-0.0,0.0,-4.48,-0.04,-0.21
14:05:43.663,-0.0,-0.0,-0.0,-4.4,0.04,0.07
14:05:43.671,-0.01,-0.0,-0.0,-4.53,0.01,-0.05
14:05:43.678,-0.01,-0.01,-0.0,-4.39,0.04,-0.03
14:05:43.685,-0.01,-0.0,-0.01,-4.44,-0.07,-0.05
14:05:43.692,-0.01,-0.01,-0.0,-4.4,-0.02,-0.2
14:05:43.700,-0.02,-0.0,-0.0,-4.43,0.01,-0.04
14:05:43.707,0.0,-0.0,-0.0,-4.45,-0.09,0.02
14:05:43.714,-0.01,-0.01,0.0,-4.35,-0.02,-0.01
14:05:43.721,-0.0,-0.0,-0.01,-4.6,-0.21,-0.08
14:05:43.729,-0.01,-0.01,0.0,-4.48,0.02,0.01
14:05:43.736,-0.0,-0.0,-0.0,-4.51,0.08,-0.14
14:05:43.743,-0.01,-0.01,0.0,-4.5,0.24,0.01
14:05:43.750,-0.01,0.0,-0.0,-4.5,0.05,0.14
14:05:43.758,-0.0,0.0,-0.0,-4.47,-0.02,0.06
14:05:43.765,0.0,-0.0,-0.0,-4.32,-0.02,-0.11
14:05:43.772,0.02,-0.01,0.02,-4.54,-0.02,0.0
14:05:43.779,0.0,-0.01,0.0,-4.46,-0.09,-0.14
14:05:43.787,0.0,-0.0,-0.0,-4.37,0.05,-0.01
14:05:43.794,-0.0,-0.0,0.01,-4.34,-0.08,-0.03
14:05:43.801,-0.01,-0.0,-0.0,-4.42,-0.03,0.04
14:05:43.809,-0.01,-0.01,-0.01,-4.38,0.05,-0.01
14:05:43.816,-0.0,0.0,0.0,-4.53,0.06,-0.15
14:05:43.823,-0.01,-0.0,0.0,-4.34,-0.06,0.04
14:05:43.830,-0.0,0.01,-0.01,-4.43,-0.08,-0.01
14:05:43.838,-0.0,-0.01,-0.0,-4.56,0.05,0.05
14:05:43.845,-0.0,-0.01,0.01,-4.4,0.02,-0.09
14:05:43.852,-0.0,0.0,0.0,-4.51,0.03,0.07
14:05:43.859,-0.01,-0.0,-0.0,-4.46,0.07,-0.02
14:05:43.867,0.0,-0.01,-0.0,-4.5,-0.21,0.08
14:05:43.874,0.01,0.0,0.01,-4.47,-0.1,0.14
14:05:43.881,-0.01,-0.0,0.01,-4.52,-0.0,-0.04
14:05:43.888,-0.0,-0.01,-0.0,-4.45,-0.05,0.0
14:05:43.896,-0.0,-0.0,-0.01,-4.36,-0.0,-0.11
14:05:43.903,-0.0,0.0,-0.01,-4.53,0.05,0.02
14:05:43.910,-0.0,-0.0,-0.01,-4.56,-0.07,-0.03
14:05:43.918,-0.0,0.01,-0.0,-4.52,0.06,0.04
14:05:43.925,0.0,-0.01,-0.0,-4.49,0.06,-0.07
14:05:43.932,-0.01,-0.0,0.0,-4.5,0.13,-0.22
14:05:43.939,0.0,-0.0,0.02,-4.44,-0.04,-0.18
14:05:43.947,-0.0,-0.01,-0.0,-4.31,0.12,-0.19
14:05:43.954,-0.01,0.0,0.0,-4.5,-0.1,-0.02
14:05:43.961,-0.02,-0.0,-0.01,-4.5,0.05,0.02
14:05:43.968,-0.0,-0.0,0.0,-4.53,-0.03,0.09
14:05:43.976,-0.01,-0.01,-0.01,-4.48,0.09,-0.11
14:05:43.983,-0.0,-0.01,-0.0,-4.48,0.02,-0.01
14:05:43.991,-0.0,-0.01,0.0,-4.31,-0.04,0.18
14:05:43.998,0.01,-0.01,-0.0,-4.31,0.06,-0.08
14:05:44.005,-0.0,-0.0,0.0,-4.24,0.01,0.05
14:05:44.012,-0.0,-0.0,0.0,-4.48,-0.19,-0.05
14:05:44.020,-0.0,-0.0,-0.0,-4.44,0.09,-0.07
14:05:44.027,-0.0,-0.0,-0.0,-4.51,-0.05,-0.08
14:05:44.034,0.02,-0.0,0.01,-4.53,0.07,-0.11
14:05:44.042,0.01,0.01,-0.0,-4.5,0.06,-0.1
14:05:44.049,-0.01,-0.01,-0.01,-4.51,0.11,-0.16
14:05:44.056,-0.01,0.0,0.0,-4.53,0.03,-0.13
14:05:44.063,-0.0,0.0,-0.0,-4.38,-0.02,-0.19
14:05:44.071,-0.0,-0.01,-0.0,-4.45,0.02,-0.05
14:05:44.078,0.01,-0.0,0.0,-4.44,-0.08,-0.09
14:05:44.085,0.0,0.0,0.0,-4.43,0.02,-0.14
14:05:44.092,-0.01,-0.01,-0.0,-4.43,-0.02,-0.15
14:05:44.100,-0.01,-0.0,-0.01,-4.47,0.05,0.22
14:05:44.107,-0.0,-0.0,-0.01,-4.52,-0.05,0.12
14:05:44.114,-0.0,-0.0,-0.01,-4.45,0.06,0.02
14:05:44.121,-0.0,-0.0,-0.0,-4.45,0.1,-0.15
14:05:44.129,-0.0,-0.01,0.0,-4.54,-0.05,-0.04
14:05:44.136,-0.0,-0.0,0.02,-4.51,0.21,-0.03
14:05:44.144,0.0,-0.01,-0.01,-4.56,0.01,0.04
14:05:44.151,-0.0,-0.0,0.0,-4.57,-0.03,-0.15
14:05:44.158,-0.01,0.0,0.01,-4.41,-0.11,-0.08
14:05:44.165,0.0,-0.01,0.0,-4.31,0.05,-0.17
14:05:44.173,-0.0,-0.0,-0.0,-4.4,0.07,-0.04
14:05:44.180,-0.0,-0.01,-0.01,-4.4,-0.21,0.11
14:05:44.187,-0.0,-0.0,-0.0,-4.59,0.02,-0.07
14:05:44.195,-0.0,-0.0,0.0,-4.6,0.06,0.2
14:05:44.202,-0.0,0.0,-0.01,-4.35,0.04,0.11
14:05:44.209,-0.0,-0.01,-0.01,-4.52,-0.15,-0.14
14:05:44.216,0.01,-0.01,0.0,-4.51,-0.02,0.01
14:05:44.224,-0.0,0.0,0.0,-4.49,-0.02,-0.02
14:05:44.231,-0.0,-0.01,0.0,-4.43,-0.09,0.1
14:05:44.238,-0.01,-0.0,-0.0,-4.58,0.02,-0.1
14:05:44.246,-0.0,-0.01,0.0,-4.53,-0.01,-0.01
14:05:44.253,-0.01,-0.0,-0.0,-4.5,0.12,-0.04
14:05:44.260,-0.0,-0.0,-0.0,-4.52,-0.11,-0.05
14:05:44.267,-0.01,-0.0,-0.0,-4.49,-0.07,-0.11
14:05:44.275,-0.0,-0.0,0.0,-4.53,-0.04,-0.29
14:05:44.282,-0.02,-0.01,0.01,-4.44,-0.04,0.03
14:05:44.289,-0.0,-0.01,-0.0,-4.57,0.11,0.02
14:05:44.297,-0.0,-0.01,-0.01,-4.33,0.03,-0.03
14:05:44.304,-0.01,0.01,0.0,-4.44,-0.0,0.02
14:05:44.311,-0.0,-0.0,0.0,-4.44,0.08,0.01
14:05:44.318,-0.0,-0.0,-0.01,-4.4,-0.1,-0.19
14:05:44.326,0.0,-0.0,0.01,-4.51,-0.08,0.01
14:05:44.333,-0.01,-0.01,-0.0,-4.45,0.03,0.04
14:05:44.340,-0.0,-0.01,0.01,-4.51,-0.06,-0.09
14:05:44.348,-0.01,-0.0,-0.01,-4.54,-0.02,0.05
14:05:44.355,-0.01,-0.01,-0.0,-4.51,0.03,-0.08
14:05:44.362,-0.02,-0.0,0.0,-4.37,0.02,0.02
14:05:44.369,-0.0,-0.0,0.0,-4.43,0.08,-0.06
14:05:44.377,-0.0,-0.0,-0.0,-4.49,0.05,-0.01
14:05:44.384,-0.01,-0.0,-0.0,-4.52,0.08,-0.09
14:05:44.391,-0.0,-0.0,-0.0,-4.48,0.08,-0.08
14:05:44.399,-0.01,-0.0,0.0,-4.51,0.05,-0.1
14:05:44.406,-0.01,0.01,0.0,-4.39,-0.02,0.0
14:05:44.413,-0.0,-0.0,0.01,-4.36,-0.15,-0.01
14:05:44.420,-0.01,-0.01,0.01,-4.43,0.16,-0.05
14:05:44.428,-0.02,-0.0,-0.0,-4.6,-0.03,-0.02
14:05:44.435,-0.0,-0.01,0.0,-4.46,-0.0,0.02
14:05:44.442,-0.0,-0.0,-0.01,-4.45,0.14,-0.02
14:05:44.449,0.0,-0.0,-0.0,-4.47,-0.08,-0.08
14:05:44.457,-0.0,-0.01,-0.0,-4.46,-0.09,-0.07
14:05:44.464,-0.01,-0.0,-0.0,-4.49,0.02,0.15
14:05:44.471,-0.0,-0.01,-0.0,-4.53,0.03,-0.02
14:05:44.479,-0.01,-0.0,-0.01,-4.49,0.2,-0.05
14:05:44.486,-0.01,-0.01,-0.0,-4.46,0.03,-0.11
14:05:44.493,0.0,-0.01,-0.01,-4.47,0.02,0.18
14:05:44.500,-0.0,0.0,0.0,-4.48,0.14,0.08
14:05:44.508,-0.01,-0.0,-0.0,-4.53,0.05,-0.02
14:05:44.515,-0.01,0.0,-0.0,-4.55,0.06,0.08
14:05:44.522,0.0,-0.0,0.0,-4.46,0.02,-0.11
14:05:44.530,0.01,-0.0,-0.0,-4.4,-0.02,0.05
14:05:44.537,-0.0,-0.01,0.01,-4.48,0.02,-0.19
14:05:44.544,-0.01,-0.01,0.01,-4.46,-0.06,0.03
14:05:44.551,-0.0,-0.01,-0.01,-4.51,-0.02,-0.12
14:05:44.559,0.0,-0.01,0.0,-4.3,-0.04,0.02
14:05:44.566,-0.0,0.0,0.0,-4.31,-0.14,-0.04
14:05:44.573,-0.0,0.0,0.02,-4.4,-0.18,0.13
14:05:44.580,-0.01,-0.0,0.01,-4.48,0.02,0.14
14:05:44.588,-0.0,0.01,-0.0,-4.47,-0.05,-0.1
14:05:44.595,-0.0,-0.01,-0.0,-4.62,-0.02,0.0
14:05:44.602,-0.01,-0.01,-0.0,-4.47,-0.02,-0.02
14:05:44.610,-0.0,-0.01,0.01,-4.54,0.08,-0.04
14:05:44.617,-0.01,-0.0,0.01,-4.53,0.05,-0.05
14:05:44.624,-0.01,-0.0,0.0,-4.53,-0.02,-0.15
14:05:44.632,-0.0,-0.02,-0.0,-4.49,0.04,0.14
14:05:44.639,-0.01,-0.01,0.0,-4.47,-0.05,0.01
14:05:44.646,-0.01,-0.0,-0.01,-4.46,-0.11,0.0
14:05:44.653,-0.0,-0.01,-0.0,-4.35,-0.05,-0.09
14:05:44.661,-0.0,-0.0,-0.01,-4.37,0.05,-0.11
14:05:44.668,-0.0,-0.0,0.0,-4.41,-0.01,-0.08
14:05:44.675,-0.0,-0.0,-0.01,-4.59,0.02,-0.02
14:05:44.682,-0.0,-0.0,-0.0,-4.45,-0.05,0.11
14:05:44.690,0.0,-0.0,0.02,-4.53,-0.0,-0.12
14:05:44.697,-0.0,-0.0,0.02,-4.4,-0.21,-0.09
14:05:44.704,-0.0,0.0,-0.0,-4.4,-0.16,-0.17
14:05:44.712,-0.0,-0.0,-0.01,-4.39,-0.05,-0.08
14:05:44.719,-0.01,0.0,-0.01,-4.54,0.04,-0.11
14:05:44.726,0.0,-0.01,0.0,-4.41,-0.05,-0.08
14:05:44.733,0.0,-0.0,-0.0,-4.51,0.2,0.07
14:05:44.741,-0.0,-0.01,-0.0,-4.53,-0.02,0.04
14:05:44.748,-0.0,-0.01,0.0,-4.34,0.05,-0.15
14:05:44.755,-0.0,-0.0,0.0,-4.57,0.09,-0.15
14:05:44.762,-0.01,-0.0,0.0,-4.45,-0.04,0.04
14:05:44.770,-0.0,-0.0,0.0,-4.46,0.08,0.02
14:05:44.777,-0.01,-0.0,0.01,-4.41,0.11,-0.01
14:05:44.784,-0.01,-0.0,0.0,-4.37,0.07,-0.07
14:05:44.791,-0.01,-0.01,0.0,-4.59,-1.69,-0.06
14:05:44.799,-0.01,-0.01,-0.01,-4.59,0.08,-0.17
14:05:44.806,-0.0,-0.01,-0.0,-4.44,-0.11,-0.18
14:05:44.813,0.0,-0.01,0.01,-4.58,-0.02,-0.05
14:05:44.821,-0.0,-0.0,0.0,-4.37,-0.03,0.01
14:05:44.828,-0.01,-0.0,0.01,-4.47,0.18,-0.03
14:05:44.835,0.01,-0.0,-0.0,-4.53,-0.11,-0.05
14:05:44.842,-0.01,-0.0,0.01,-4.47,0.05,-0.08
14:05:44.850,0.0,-0.0,0.0,-4.39,0.08,-0.04
14:05:44.857,-0.0,-0.0,0.0,-4.42,-0.02,0.08
14:05:44.864,-0.0,-0.0,-0.0,-4.59,0.14,-0.03
14:05:44.871,-0.0,-0.01,0.01,-4.4,0.07,0.06
14:05:44.879,-0.01,-0.01,-0.0,-4.37,-0.0,0.02
14:05:44.886,-0.01,-0.0,-0.0,-4.39,-0.11,0.07
14:05:44.893,-0.0,-0.0,0.0,-4.48,0.14,-0.05
14:05:44.901,0.01,-0.01,0.0,-4.54,0.06,0.12
14:05:44.908,-0.0,-0.0,-0.0,-4.39,0.13,-0.13
14:05:44.915,-0.0,-0.0,-0.0,-4.51,0.03,-0.04
14:05:44.922,-0.0,-0.0,-0.01,-4.47,-0.02,0.02
14:05:44.930,-0.0,-0.01,0.01,-4.52,0.03,0.01
14:05:44.937,-0.01,-0.0,0.0,-4.63,0.2,0.06
14:05:44.944,-0.0,-0.0,0.01,-4.5,-0.1,-0.11
14:05:44.951,-0.0,-0.01,-0.0,-4.52,-0.02,-0.04
14:05:44.959,0.0,-0.01,-0.0,-4.42,-0.03,0.02
14:05:44.966,-0.0,-0.0,-0.01,-4.5,-0.15,0.02
14:05:44.973,-0.01,-0.0,-0.0,-4.49,-0.02,-0.12
14:05:44.980,-0.0,-0.0,-0.01,-4.46,-0.08,-0.06
14:05:44.988,-0.01,0.0,-0.01,-4.4,-0.05,-0.07
14:05:44.995,-0.0,-0.01,0.0,-4.56,-0.15,0.11
14:05:45.002,-0.01,-0.01,-0.0,-4.47,-0.01,-0.08
14:05:45.010,-0.01,-0.01,0.01,-4.5,0.06,-0.03
14:05:45.017,-0.0,-0.0,0.0,-4.45,-0.04,-0.01
14:05:45.024,-0.0,-0.0,0.01,-4.42,0.04,0.17
14:05:45.031,0.0,0.0,0.0,-4.49,0.05,0.03
14:05:45.039,-0.0,-0.0,-0.01,-4.52,-0.11,0.11
14:05:45.046,-0.0,-0.01,-0.0,-4.36,0.01,-0.05
14:05:45.053,0.02,0.0,-0.01,-4.41,0.02,0.01
14:05:45.060,-0.0,-0.0,0.0,-4.43,0.09,-0.07
14:05:45.068,-0.01,-0.0,0.01,-4.53,-0.01,-0.04
14:05:45.075,-0.01,-0.0,0.01,-4.49,-0.0,-0.09
14:05:45.082,-0.0,-0.0,-0.0,-4.62,0.03,-0.1
14:05:45.090,-0.0,-0.0,-0.0,-4.51,0.02,-0.01
14:05:45.097,-0.0,-0.0,0.02,-4.36,0.05,-0.02
14:05:45.104,-0.01,-0.01,0.0,-4.48,-0.15,-0.01
14:05:45.111,-0.0,-0.0,0.0,-4.6,-0.16,-0.11
14:05:45.119,-0.01,-0.01,-0.0,-4.37,-0.01,-0.01
14:05:45.126,-0.01,-0.0,-0.0,-4.43,-0.09,0.1
14:05:45.133,-0.01,0.0,0.0,-4.43,-0.11,0.03
14:05:45.141,-0.0,-0.0,-0.0,-4.47,-0.08,-0.08
14:05:45.148,-0.0,-0.0,0.02,-4.56,-0.12,-0.01
14:05:45.155,-0.0,-0.0,0.01,-4.54,-0.0,0.02
14:05:45.163,-0.01,-0.01,0.01,-4.55,-0.05,0.12
14:05:45.170,-0.0,0.01,0.0,-4.47,0.05,-0.01
14:05:45.177,0.0,-0.0,-0.01,-4.49,0.02,0.08
14:05:45.185,-0.0,-0.01,0.0,-4.43,0.01,-0.14
14:05:45.192,-0.0,-0.0,0.01,-4.56,0.06,-0.06
14:05:45.199,-0.0,-0.01,-0.01,-4.55,-0.02,-0.01
14:05:45.206,-0.0,-0.0,-0.0,-4.5,-0.04,0.18
14:05:45.214,-0.0,-0.0,-0.01,-4.43,0.08,-0.16
14:05:45.221,0.0,-0.0,0.01,-4.5,0.19,0.15
14:05:45.228,-0.0,-0.0,0.0,-4.59,0.1,0.11
14:05:45.236,-0.0,-0.01,-0.0,-4.58,-0.1,0.05
14:05:45.243,-0.0,-0.0,-0.0,-4.63,-0.05,-0.1
14:05:45.250,-0.01,-0.0,0.02,-4.47,0.02,-0.01
14:05:45.257,0.0,0.0,-0.0,-4.51,-0.04,-0.09
14:05:45.265,-0.0,-0.0,0.01,-4.56,-0.11,-0.09
14:05:45.272,-0.0,-0.01,-0.01,-4.37,-0.03,0.0
14:05:45.280,-0.01,-0.01,-0.0,-4.54,0.01,-0.02
14:05:45.287,-0.0,-0.01,0.01,-4.34,0.11,0.05
14:05:45.294,-0.0,-0.0,-0.0,-4.37,-0.15,0.0
14:05:45.302,-0.0,0.0,0.01,-4.39,-0.1,-0.11
14:05:45.309,0.0,-0.0,-0.01,-4.53,0.07,-0.14
14:05:45.316,-0.0,-0.0,-0.0,-4.45,0.12,0.14
14:05:45.323,-0.02,-0.01,-0.01,-4.31,-0.05,0.02
14:05:45.331,-0.01,-0.01,0.01,-4.42,0.02,-0.08
14:05:45.338,-0.01,-0.0,0.01,-4.47,-0.13,0.12
14:05:45.345,-0.02,-0.02,-0.01,-4.6,0.01,-0.01
14:05:45.353,-0.0,-0.01,0.0,-4.35,-0.07,0.02
14:05:45.360,-0.0,-0.0,-0.0,-4.53,-0.1,0.02
14:05:45.367,-0.0,0.0,0.01,-4.56,0.15,-0.08
14:05:45.374,-0.01,-0.0,-0.01,-4.38,-0.03,-0.12
14:05:45.382,-0.0,-0.01,0.0,-4.47,-0.08,-0.05
14:05:45.389,0.01,-0.01,0.0,-4.44,-0.08,0.02
14:05:45.396,-0.0,-0.0,-0.01,-4.44,-0.02,-0.14
14:05:45.403,0.0,-0.01,-0.0,-4.45,-0.05,0.1
14:05:45.411,-0.0,-0.01,-0.0,-4.54,0.02,-0.1
14:05:45.418,-0.01,-0.01,0.01,-4.53,-0.01,-0.05
14:05:45.425,-0.01,-0.02,0.02,-4.41,0.08,-0.04
14:05:45.433,-0.01,-0.0,0.0,-4.4,0.05,-0.04
14:05:45.440,0.0,-0.01,-0.0,-4.39,0.06,0.06
14:05:45.447,-0.0,-0.01,-0.0,-4.36,0.01,-0.13
14:05:45.454,-0.0,-0.0,-0.0,-4.53,-0.05,-0.13
14:05:45.462,-0.0,-0.01,-0.0,-4.54,0.06,-0.03
14:05:45.469,-0.0,-0.01,0.0,-4.5,-0.04,-0.01
14:05:45.476,0.0,-0.01,-0.0,-4.56,-0.02,-0.13
14:05:45.484,-0.0,-0.01,-0.01,-4.42,0.11,-0.09
14:05:45.491,-0.0,-0.0,-0.0,-4.4,0.04,0.02
14:05:45.498,-0.0,-0.0,0.0,-4.47,0.08,-0.05
14:05:45.505,-0.01,-0.01,0.0,-4.42,0.05,-0.01
14:05:45.513,0.0,-0.0,-0.01,-4.57,0.02,-0.18
14:05:45.520,-0.01,-0.01,-0.0,-4.42,-0.02,-0.08
14:05:45.527,0.02,-0.01,0.01,-4.48,-0.02,0.05
14:05:45.535,-0.01,-0.0,0.0,-4.5,0.06,-0.03
14:05:45.542,-0.0,-0.01,-0.0,-4.52,0.04,0.07
14:05:45.549,-0.0,-0.0,0.0,-4.53,0.12,0.03
14:05:45.556,-0.0,-0.0,-0.0,-4.42,0.02,0.08
14:05:45.564,-0.0,-0.01,-0.01,-4.4,0.1,-0.06
14:05:45.571,0.0,-0.0,-0.0,-4.5,-0.12,-0.07
14:05:45.578,-0.0,-0.0,-0.0,-4.43,0.12,0.05
14:05:45.585,0.0,-0.01,-0.0,-4.48,-0.02,0.04
14:05:45.593,-0.01,-0.01,-0.01,-4.53,0.01,0.18
14:05:45.600,-0.0,-0.01,0.01,-4.48,-0.09,0.07
14:05:45.607,-0.0,-0.01,0.0,-4.49,-0.02,0.06
14:05:45.615,-0.0,-0.0,-0.01,-4.53,0.02,0.05
14:05:45.622,-0.0,-0.01,-0.0,-4.43,-0.09,-0.04
14:05:45.629,-0.02,-0.0,-0.0,-4.4,-0.01,0.02
14:05:45.636,-0.0,0.01,0.01,-4.5,0.08,0.11
14:05:45.644,-0.0,-0.01,0.0,-4.34,-0.01,0.06
14:05:45.651,0.01,-0.01,-0.01,-4.55,-0.06,0.0
14:05:45.658,0.0,-0.0,-0.01,-4.43,0.09,-0.1
14:05:45.666,0.0,-0.01,0.0,-4.5,-0.09,0.17
14:05:45.673,-0.01,-0.01,-0.0,-4.45,-0.08,-0.03
14:05:45.680,0.0,-0.01,-0.01,-4.52,0.21,-0.01
14:05:45.687,-0.01,-0.0,0.0,-4.37,0.15,0.04
14:05:45.695,-0.0,-0.01,-0.01,-4.52,0.02,0.05
14:05:45.702,-0.0,-0.0,-0.0,-4.37,0.01,-0.12
14:05:45.709,0.01,-0.01,-0.01,-4.5,-0.11,-0.04
14:05:45.717,-0.0,-0.02,-0.01,-4.55,0.01,0.04
14:05:45.724,-0.0,-0.0,-0.0,-4.52,-0.0,-0.04
14:05:45.731,-0.01,-0.0,0.0,-4.47,-0.01,0.04
14:05:45.738,-0.01,-0.0,0.0,-4.4,0.08,-0.02
14:05:45.746,-0.0,-0.0,0.01,-4.43,0.18,0.07
14:05:45.753,-0.0,-0.01,-0.0,-4.5,-0.06,-0.07
14:05:45.760,-0.01,-0.02,0.02,-4.42,0.02,-0.18
14:05:45.767,-0.0,-0.01,0.0,-4.51,0.08,0.09
14:05:45.775,-0.0,-0.0,0.0,-4.38,0.02,-0.08
14:05:45.782,-0.0,-0.02,0.01,-4.49,0.08,0.11
14:05:45.789,-0.01,-0.0,0.0,-4.48,-0.06,0.02
14:05:45.797,0.01,-0.02,0.0,-4.4,-0.23,-0.11
14:05:45.804,-0.0,-0.0,0.0,-4.58,-0.02,0.15
14:05:45.811,0.0,-0.0,0.01,-4.4,-0.02,0.13
14:05:45.818,-0.0,0.01,-0.0,-4.54,-0.15,-0.04
14:05:45.826,-0.0,-0.01,0.02,-4.55,0.05,-0.27
14:05:45.833,-0.0,0.0,-0.01,-4.45,0.08,0.05
14:05:45.840,-0.0,0.01,-0.01,-4.43,0.15,0.02
14:05:45.847,0.0,-0.01,0.0,-4.56,-0.01,-0.12
14:05:45.855,-0.0,0.0,-0.0,-4.38,-0.02,-0.08
14:05:45.862,-0.0,-0.0,0.0,-4.52,0.02,0.05
14:05:45.869,-0.0,-0.0,-0.0,-4.44,-0.08,0.02
14:05:45.876,-0.0,-0.01,-0.01,-4.37,-0.08,0.03
14:05:45.884,-0.0,-0.01,-0.01,-4.49,0.09,0.06
14:05:45.891,0.0,0.0,0.0,-4.45,-0.06,0.08
14:05:45.898,-0.01,0.0,-0.01,-4.53,0.05,0.08
14:05:45.905,0.01,-0.02,-0.0,-4.44,0.13,0.05
14:05:45.913,-0.0,-0.0,-0.01,-4.53,0.04,0.08
14:05:45.920,-0.0,-0.01,0.0,-4.5,0.02,-0.12
14:05:45.927,0.01,-0.0,-0.0,-4.5,0.04,0.05
14:05:45.935,-0.01,-0.01,-0.0,-4.59,0.18,-0.04
14:05:45.942,-0.0,-0.0,-0.01,-4.5,-0.02,-0.1
14:05:45.949,-0.0,-0.01,-0.0,-4.59,-0.0,-0.1
14:05:45.956,0.0,-0.0,-0.0,-4.39,-0.14,-0.14
14:05:45.964,0.0,-0.01,-0.01,-4.43,0.08,-0.1
14:05:45.971,-0.0,-0.01,0.02,-4.5,-0.02,-0.16
14:05:45.978,-0.0,-0.0,0.01,-4.58,-0.13,0.02
14:05:45.986,-0.0,-0.02,0.0,-4.5,0.05,-0.16
14:05:45.993,-0.01,-0.01,0.01,-4.52,0.05,0.06
14:05:46.000,-0.0,-0.0,0.0,-4.47,0.17,-0.02
14:05:46.007,0.01,-0.02,0.02,-4.41,-0.08,-0.02
14:05:46.015,-0.0,-0.01,0.01,-4.44,0.11,-0.05
14:05:46.022,-0.0,-0.0,-0.0,-4.54,-0.05,0.08
14:05:46.029,-0.01,-0.01,-0.01,-4.5,0.05,-0.15
14:05:46.036,0.0,-0.01,-0.0,-4.54,0.09,0.08
14:05:46.044,-0.0,-0.01,0.01,-4.54,0.07,-0.02
14:05:46.051,-0.01,-0.0,-0.01,-4.43,0.1,0.05
14:05:46.058,-0.0,-0.0,-0.0,-4.53,0.04,-0.03
14:05:46.066,-0.0,-0.0,-0.01,-4.44,-0.04,-0.16
14:05:46.073,-0.0,-0.0,0.01,-4.44,-0.11,0.02
14:05:46.080,-0.0,0.0,0.0,-4.5,0.18,-0.07
14:05:46.087,-0.0,0.0,0.01,-4.49,0.01,-0.11
14:05:46.095,-0.02,0.01,0.0,-4.37,0.03,-0.02
14:05:46.102,-0.01,-0.0,0.01,-4.46,0.02,0.02
14:05:46.109,-0.0,-0.01,0.0,-4.44,-0.08,0.03
14:05:46.116,-0.01,-0.0,0.0,-4.47,0.01,-0.05
14:05:46.124,-0.0,-0.0,0.0,-4.55,0.14,0.09
14:05:46.131,-0.0,-0.01,-0.0,-4.4,0.07,0.05
14:05:46.139,-0.01,-0.0,-0.01,-4.37,-0.05,0.05
14:05:46.146,-0.01,-0.01,0.0,-4.47,0.07,-0.01
14:05:46.153,-0.0,-0.01,-0.0,-4.47,0.02,0.05
14:05:46.161,-0.0,-0.0,-0.0,-4.6,-0.05,0.06
14:05:46.168,-0.01,-0.0,-0.01,-4.51,0.16,0.15
14:05:46.175,-0.0,-0.0,0.01,-4.45,0.16,0.08
14:05:46.182,-0.01,-0.0,-0.0,-4.44,-0.15,0.0
14:05:46.190,-0.0,-0.02,-0.0,-4.38,0.05,0.08
14:05:46.197,-0.0,-0.01,-0.0,-4.52,0.05,-0.1
14:05:46.204,-0.0,-0.01,0.0,-4.58,-0.08,-0.02
14:05:46.212,-0.0,-0.0,-0.0,-4.53,0.08,-0.05
14:05:46.219,-0.0,-0.0,-0.0,-4.6,-0.03,-0.08
14:05:46.226,-0.01,-0.02,-0.01,-4.56,-0.0,-0.19
14:05:46.233,0.0,-0.0,-0.01,-4.49,0.18,-0.09
14:05:46.241,-0.0,-0.01,0.0,-4.46,-0.02,0.02
14:05:46.248,0.01,-0.01,-0.01,-4.49,0.02,-0.01
14:05:46.255,-0.01,-0.0,-0.0,-4.49,0.11,0.0
14:05:46.263,-0.0,-0.0,0.0,-4.47,0.04,-0.06
14:05:46.270,-0.01,-0.0,0.0,-4.46,-0.05,-0.23
14:05:46.277,-0.0,-0.01,-0.0,-4.33,0.05,0.07
14:05:46.285,-0.01,-0.0,-0.0,-4.46,-0.02,-0.19
14:05:46.292,-0.0,-0.0,0.0,-4.64,-0.1,-0.02
14:05:46.299,-0.0,-0.01,0.0,-4.35,-0.1,0.07
14:05:46.306,-0.0,-0.0,0.01,-4.48,0.21,0.01
14:05:46.314,-0.01,-0.0,-0.01,-4.53,-0.01,-0.18
14:05:46.321,0.0,-0.0,0.0,-4.53,0.13,-0.1
14:05:46.328,-0.02,-0.0,-0.0,-4.48,0.01,-0.08
14:05:46.335,-0.0,-0.0,0.0,-4.45,0.18,0.03
14:05:46.343,-0.0,-0.0,-0.0,-4.44,-0.02,-0.03
14:05:46.350,0.01,-0.0,-0.0,-4.56,0.09,0.0
14:05:46.357,-0.0,-0.0,-0.0,-4.45,0.05,-0.11
14:05:46.364,-0.01,-0.0,0.01,-4.45,-0.05,-0.05
14:05:46.372,-0.01,-0.01,-0.0,-4.47,0.06,-0.08
14:05:46.379,-0.0,-0.01,0.01,-4.56,-0.24,0.03
14:05:46.386,-0.0,-0.0,-0.0,-4.59,0.11,-0.08
14:05:46.394,-0.01,0.0,-0.0,-4.45,0.11,0.03
14:05:46.401,0.0,-0.01,-0.0,-4.45,-0.05,0.01
14:05:46.408,-0.01,-0.0,0.01,-4.53,-0.01,-0.05
14:05:46.415,0.01,-0.0,-0.01,-4.46,-0.02,0.05
14:05:46.423,-0.01,-0.01,-0.0,-4.31,0.03,0.11
14:05:46.430,-0.0,0.0,0.0,-4.34,-0.04,-0.08
14:05:46.437,-0.0,-0.0,-0.01,-4.61,0.02,-0.01
14:05:46.445,-0.01,-0.0,0.0,-4.39,0.11,0.04
14:05:46.452,-0.0,-0.01,0.0,-4.44,0.05,-0.1
14:05:46.459,-0.0,-0.0,-0.0,-4.52,-0.04,-0.02
14:05:46.466,0.0,-0.0,-0.01,-4.38,0.17,-0.19
14:05:46.474,-0.0,-0.01,0.01,-4.43,-0.0,-0.09
14:05:46.481,-0.0,-0.0,0.02,-4.47,0.04,-0.03
14:05:46.488,0.01,-0.01,0.01,-4.43,-0.01,0.04
14:05:46.495,-0.0,-0.0,-0.01,-4.41,0.08,-0.05
14:05:46.503,-0.0,-0.0,-0.0,-4.47,-0.11,0.07
14:05:46.510,0.0,-0.01,0.01,-4.47,-0.11,-0.06
14:05:46.517,-0.01,-0.0,-0.01,-4.6,-0.1,-0.14
14:05:46.525,-0.01,-0.01,0.0,-4.44,0.18,-0.08
14:05:46.532,-0.01,-0.0,0.0,-4.37,-0.09,0.0
14:05:46.539,-0.01,-0.01,0.02,-4.47,-0.01,0.02
14:05:46.546,-0.0,-0.0,-0.01,-4.38,0.12,-0.01
14:05:46.554,-0.0,-0.0,-0.01,-4.42,-0.17,0.02
14:05:46.561,-0.01,-0.0,-0.0,-4.5,0.06,0.02
14:05:46.569,-0.0,-0.01,0.0,-4.45,-0.06,0.01
14:05:46.576,-0.0,-0.0,0.01,-4.66,-0.08,0.14
14:05:46.583,0.0,-0.0,-0.01,-4.52,-0.09,0.03
14:05:46.590,-0.01,-0.01,0.0,-4.46,0.04,-0.07
14:05:46.598,-0.0,-0.01,0.0,-4.47,-0.05,-0.12
14:05:46.605,-0.0,-0.01,0.0,-4.49,0.06,-0.01
14:05:46.612,-0.0,0.0,-0.0,-4.5,0.04,-0.06
14:05:46.620,-0.0,0.0,-0.0,-4.44,-0.05,0.03
14:05:46.627,-0.01,-0.0,-0.0,-4.29,0.1,-0.01
14:05:46.634,-0.01,-0.01,0.0,-4.47,-0.01,0.0
14:05:46.641,-0.0,-0.0,0.01,-4.4,-0.01,-0.08
14:05:46.649,-0.0,-0.01,-0.0,-4.56,0.12,-0.03
14:05:46.656,-0.0,-0.0,0.0,-4.5,-0.15,0.05
14:05:46.663,-0.0,-0.0,0.0,-4.4,0.11,-0.11
14:05:46.671,-0.0,-0.0,0.0,-4.44,0.09,-0.06
14:05:46.678,-0.01,0.01,0.0,-4.53,-0.14,0.06
14:05:46.685,-0.01,-0.01,-0.0,-4.53,-0.08,-0.07
14:05:46.692,-0.02,-0.01,0.0,-4.43,0.03,-0.06
14:05:46.700,-0.0,-0.01,-0.01,-4.6,-0.0,-0.02
14:05:46.707,0.0,-0.0,-0.0,-4.49,-0.02,-0.11
14:05:46.714,-0.0,-0.0,-0.0,-4.5,0.02,0.14
14:05:46.722,0.0,-0.01,-0.0,-4.65,0.01,-0.07
14:05:46.729,-0.0,-0.0,0.0,-4.57,-0.02,-0.04
14:05:46.736,-0.0,-0.01,-0.0,-4.56,0.05,-0.06
14:05:46.743,-0.0,-0.01,0.0,-4.5,0.06,0.13
14:05:46.751,0.0,-0.0,-0.0,-4.56,-0.02,-0.14
14:05:46.758,-0.0,-0.01,-0.01,-4.45,0.05,-0.04
14:05:46.765,-0.01,-0.01,0.0,-4.58,0.08,-0.08
14:05:46.773,-0.01,-0.01,-0.01,-4.55,0.08,-0.12
14:05:46.780,-0.0,-0.0,-0.0,-4.43,0.13,-0.07
14:05:46.787,-0.01,0.0,0.0,-4.41,0.05,-0.07
14:05:46.794,-0.01,-0.0,0.0,-4.4,-0.08,0.04
14:05:46.802,-0.0,-0.02,-0.0,-4.42,-0.05,0.03
14:05:46.809,-0.0,-0.01,-0.0,-4.49,-0.17,0.05
14:05:46.816,-0.0,-0.01,-0.01,-4.42,0.02,-0.05
14:05:46.824,-0.01,-0.01,0.0,-4.6,0.01,-0.08
14:05:46.831,0.0,-0.01,0.0,-4.58,0.13,0.11
14:05:46.838,-0.02,-0.0,0.01,-4.37,-0.11,-0.14
14:05:46.845,0.0,-0.01,-0.01,-4.56,-0.03,-0.06
14:05:46.853,-0.0,-0.0,0.0,-4.45,0.01,-0.03
14:05:46.860,-0.0,-0.02,-0.0,-4.46,-0.03,-0.15
14:05:46.867,-0.01,-0.01,-0.01,-4.46,0.05,-0.11
14:05:46.874,-0.0,-0.02,0.0,-4.34,0.12,0.0
14:05:46.882,-0.0,0.0,-0.0,-4.46,-0.1,0.08
14:05:46.889,-0.0,-0.0,-0.0,-4.32,0.01,-0.01
14:05:46.896,-0.01,-0.0,0.0,-4.44,0.01,-0.02
14:05:46.904,-0.0,-0.01,-0.0,-4.41,0.06,-0.17
14:05:46.911,-0.0,-0.0,0.0,-4.38,0.02,0.02
14:05:46.918,0.01,-0.0,-0.01,-4.46,0.11,0.0
14:05:46.925,0.0,-0.01,0.02,-4.48,-0.01,-0.12
14:05:46.933,-0.01,-0.01,0.01,-4.51,-0.02,-0.06
14:05:46.940,-0.0,-0.02,0.0,-4.5,0.08,-0.08
14:05:46.947,0.0,-0.0,-0.01,-4.47,-0.04,-0.08
14:05:46.955,0.0,-0.0,0.0,-4.49,0.07,-0.05
14:05:46.962,0.0,-0.0,0.01,-4.28,0.03,-0.06
14:05:46.969,-0.0,-0.0,0.0,-4.42,-0.0,-0.08
14:05:46.976,-0.0,-0.01,-0.0,-4.7,0.06,-0.01
14:05:46.984,-0.0,-0.0,0.02,-4.38,-0.01,-0.1
14:05:46.991,-0.01,-0.0,-0.01,-4.42,0.05,-0.01
14:05:46.998,-0.0,-0.01,-0.0,-4.54,-0.02,-0.04
14:05:47.006,-0.0,-0.01,-0.0,-4.49,-0.08,0.1
14:05:47.013,-0.0,-0.0,-0.0,-4.31,0.15,-0.17
14:05:47.020,-0.0,-0.0,-0.0,-4.55,-0.0,-0.08
14:05:47.027,0.0,-0.01,-0.0,-4.46,-0.12,-0.12
14:05:47.035,-0.01,-0.0,-0.0,-4.5,0.1,-0.05
14:05:47.042,-0.02,-0.0,-0.01,-4.6,-0.01,0.01
14:05:47.049,-0.0,-0.01,0.01,-4.47,-0.02,-0.18
14:05:47.057,-0.0,-0.0,-0.0,-4.37,0.06,0.11
14:05:47.064,-0.01,-0.0,0.01,-4.5,-0.16,0.03
14:05:47.071,-0.01,-0.01,-0.0,-4.5,0.12,0.11
14:05:47.078,-0.0,-0.0,-0.0,-4.4,-0.08,-0.11
14:05:47.086,-0.0,0.0,-0.0,-4.56,0.02,-0.11
14:05:47.093,0.0,-0.01,0.0,-4.5,-0.03,-0.14
14:05:47.100,0.01,-0.01,-0.0,-4.5,-0.1,-0.16
14:05:47.107,-0.01,-0.0,0.0,-4.36,0.08,0.02
14:05:47.115,0.0,-0.01,-0.01,-4.53,0.01,0.11
14:05:47.122,0.02,-0.01,-0.01,-4.55,0.04,0.14
14:05:47.129,-0.02,-0.0,-0.01,-4.52,0.14,-0.15
14:05:47.137,0.0,0.0,0.0,-4.47,0.07,0.0
14:05:47.144,-0.01,-0.01,0.0,-4.47,-0.08,-0.2
14:05:47.152,-0.01,-0.0,0.0,-4.33,-0.21,0.02
14:05:47.159,-0.0,0.01,0.01,-4.48,-0.13,0.03
14:05:47.166,-0.0,-0.01,-0.0,-4.36,-0.01,0.03
14:05:47.173,-0.0,-0.0,0.0,-4.6,0.08,-0.09
14:05:47.181,0.0,-0.01,-0.0,-4.5,0.06,-0.11
14:05:47.188,-0.0,0.0,-0.0,-4.41,0.05,0.03
14:05:47.195,-0.01,0.0,0.0,-4.47,0.01,0.0
14:05:47.203,0.01,-0.01,0.02,-4.43,-0.1,-0.03
14:05:47.210,-0.0,-0.01,0.01,-4.47,0.11,0.02
14:05:47.217,-0.0,-0.0,0.0,-4.45,0.08,-0.1
14:05:47.224,-0.0,-0.01,0.0,-4.52,0.05,0.07
14:05:47.232,-0.0,-0.0,0.01,-4.53,0.03,-0.1
14:05:47.239,-0.0,-0.01,-0.01,-4.66,-0.14,0.06
14:05:47.246,0.0,-0.01,-0.01,-4.58,0.02,-0.01
14:05:47.254,-0.0,-0.0,0.0,-4.47,0.05,-0.02
14:05:47.261,-0.0,-0.0,-0.01,-4.44,-0.04,-0.13
14:05:47.268,-0.0,-0.0,0.0,-4.42,-0.02,0.05
14:05:47.275,0.0,-0.01,-0.0,-4.6,-0.02,0.18
14:05:47.283,-0.01,-0.01,-0.0,-4.59,-0.08,0.07
14:05:47.290,-0.01,-0.0,-0.0,-4.5,0.07,0.0
14:05:47.297,-0.0,-0.0,0.0,-4.42,0.05,-0.27
14:05:47.304,0.0,-0.01,0.02,-4.47,-0.05,0.02
14:05:47.312,-0.01,-0.01,-0.0,-4.51,0.15,-0.01
14:05:47.319,-0.0,-0.01,-0.01,-4.44,0.03,-0.01
14:05:47.326,-0.01,-0.01,0.02,-4.43,0.08,-0.11
14:05:47.334,-0.0,0.0,0.0,-4.5,0.05,0.03
14:05:47.341,0.0,-0.01,-0.01,-4.53,-0.1,-0.11
14:05:47.348,-0.0,-0.0,0.0,-4.45,-0.0,-0.08
14:05:47.355,-0.01,-0.0,0.0,-4.59,0.15,0.13
14:05:47.363,-0.0,-0.0,-0.01,-4.5,-0.05,0.09
14:05:47.370,0.01,-0.01,0.0,-4.35,-0.04,-0.13
14:05:47.377,-0.0,-0.01,-0.0,-4.45,0.1,0.02
14:05:47.385,-0.01,-0.0,-0.0,-4.59,0.09,0.02
14:05:47.392,-0.0,-0.0,-0.0,-4.31,-0.14,-0.04
14:05:47.399,-0.01,-0.0,-0.0,-4.37,-0.05,-0.16
14:05:47.407,-0.0,-0.0,-0.01,-4.56,-0.02,-0.09
14:05:47.414,0.0,-0.0,-0.0,-4.48,0.05,0.07
14:05:47.421,-0.0,-0.0,-0.01,-4.44,-0.21,0.02
14:05:47.428,0.0,-0.01,-0.0,-4.47,-0.01,-0.01
14:05:47.436,-0.0,-0.0,0.0,-4.61,0.17,-0.22
14:05:47.443,0.0,-0.01,-0.01,-4.38,-0.0,-0.04
14:05:47.450,-0.0,0.0,-0.01,-4.43,0.02,0.04
14:05:47.458,-0.0,-0.0,-0.0,-4.53,-0.04,0.03
14:05:47.465,-0.01,-0.01,-0.01,-4.53,-0.05,-0.08
14:05:47.472,0.0,-0.0,-0.0,-4.63,0.02,0.15
14:05:47.479,-0.02,0.0,0.0,-4.45,-0.01,-0.05
14:05:47.487,-0.01,0.01,-0.0,-4.58,0.03,-0.1
14:05:47.494,-0.01,-0.01,-0.0,-4.44,-0.15,-0.14
14:05:47.501,-0.0,-0.0,0.01,-4.44,0.02,0.01
14:05:47.509,-0.0,-0.02,-0.01,-4.37,-0.0,-0.05
14:05:47.516,-0.01,-0.0,0.0,-4.5,0.18,-0.01
14:05:47.523,0.01,-0.01,0.0,-4.59,-0.14,0.11
14:05:47.531,-0.01,-0.0,0.0,-4.43,0.02,0.13
14:05:47.538,-0.0,0.0,-0.01,-4.47,0.01,-0.03
14:05:47.545,-0.0,-0.01,-0.01,-4.49,0.07,-0.11
14:05:47.552,-0.01,0.0,0.0,-4.5,-0.04,-0.07
14:05:47.560,0.01,-0.0,-0.01,-4.43,-0.08,0.09
14:05:47.567,-0.0,0.0,0.0,-4.46,-0.03,-0.01
14:05:47.574,-0.0,-0.01,0.0,-4.53,0.05,-0.07
14:05:47.582,-0.0,-0.01,0.02,-4.34,-0.15,0.05
14:05:47.589,-0.0,-0.0,-0.01,-4.48,-0.08,-0.01
14:05:47.596,-0.01,-0.0,-0.0,-4.39,-0.08,-0.08
14:05:47.603,-0.01,-0.01,-0.0,-4.48,-0.05,-0.07
14:05:47.611,0.0,-0.01,0.0,-4.43,-0.02,0.06
14:05:47.618,-0.01,-0.0,-0.0,-4.66,-0.02,0.08
14:05:47.625,-0.0,0.01,-0.0,-4.5,-0.04,0.04
14:05:47.633,-0.01,-0.01,-0.0,-4.54,-0.05,-0.02
14:05:47.640,-0.0,-0.0,-0.01,-4.43,-0.02,0.01
14:05:47.647,-0.01,0.0,-0.0,-4.44,0.2,-0.08
14:05:47.654,-0.01,-0.0,0.0,-4.52,0.13,0.01
14:05:47.662,-0.0,-0.0,0.02,-4.57,0.17,-0.05
14:05:47.669,-0.0,-0.0,-0.0,-4.4,0.01,0.15
14:05:47.676,0.0,-0.0,0.0,-4.39,-0.02,-0.08
14:05:47.684,-0.0,-0.01,0.0,-4.49,0.01,0.05
14:05:47.691,0.0,-0.0,-0.0,-4.42,0.05,0.1
14:05:47.698,-0.0,-0.02,-0.0,-4.37,0.01,-0.21
14:05:47.705,0.02,-0.0,0.02,-4.44,-0.08,-0.07
14:05:47.713,-0.0,-0.0,-0.0,-4.47,-0.03,-0.05
14:05:47.720,-0.0,-0.0,-0.01,-4.44,0.05,0.0
14:05:47.727,-0.0,-0.0,0.0,-4.56,0.05,-0.01
14:05:47.735,-0.0,-0.01,-0.0,-4.51,0.03,-0.27
14:05:47.742,-0.0,-0.01,0.01,-4.46,0.05,0.05
14:05:47.749,-0.0,0.0,-0.0,-4.5,0.02,-0.14
14:05:47.756,-0.0,-0.0,-0.0,-4.36,-0.02,-0.01
14:05:47.764,-0.01,-0.0,-0.0,-4.44,0.06,-0.09
14:05:47.771,-0.0,-0.01,-0.0,-4.44,-0.01,0.05
14:05:47.778,0.0,-0.0,-0.0,-4.3,-0.12,-0.11
14:05:47.786,-0.01,-0.0,0.0,-4.47,-0.02,-0.01
14:05:47.793,-0.0,-0.0,-0.0,-4.55,-0.1,-0.05
14:05:47.800,-0.0,-0.0,0.01,-4.52,-0.01,0.03
14:05:47.807,-0.0,-0.02,0.0,-4.48,-0.02,0.03
14:05:47.815,0.0,-0.01,0.0,-4.38,-0.05,0.06
14:05:47.822,-0.01,-0.0,-0.01,-4.46,0.02,0.11
14:05:47.829,-0.0,-0.0,-0.0,-4.4,-0.08,0.03
14:05:47.837,-0.01,-0.0,0.0,-4.41,0.02,0.06
14:05:47.844,-0.0,-0.0,-0.01,-4.51,-0.06,0.0
14:05:47.851,0.0,-0.01,0.0,-4.53,0.02,-0.04
14:05:47.858,-0.0,-0.0,-0.0,-4.46,-0.08,-0.05
14:05:47.866,-0.0,-0.0,-0.01,-4.47,-0.09,-0.08
14:05:47.873,0.0,-0.0,0.0,-4.49,-0.03,-0.12
14:05:47.880,-0.0,-0.01,-0.0,-4.5,0.14,0.0
14:05:47.888,-0.0,-0.01,-0.0,-4.44,-0.01,-0.02
14:05:47.895,-0.01,-0.0,0.0,-4.48,-0.04,-0.05
14:05:47.902,-0.01,-0.0,-0.0,-4.61,-0.16,0.11
14:05:47.909,-0.0,-0.0,-0.0,-4.39,0.02,-0.01
14:05:47.917,-0.0,-0.01,-0.0,-4.41,0.02,0.08
14:05:47.924,-0.0,-0.01,-0.01,-4.5,0.05,0.07
14:05:47.931,-0.0,-0.0,0.0,-4.52,-0.18,-0.01
14:05:47.939,-0.0,-0.0,0.0,-4.49,-0.11,-0.03
14:05:47.946,-0.0,-0.0,0.0,-4.58,0.07,-0.03
14:05:47.953,0.0,-0.01,-0.0,-4.35,0.12,-0.09
14:05:47.960,-0.02,-0.0,-0.0,-4.53,0.05,0.02
14:05:47.968,0.0,-0.0,0.0,-4.47,0.02,0.05
14:05:47.975,-0.01,-0.01,-0.0,-4.56,0.08,-0.02
14:05:47.982,-0.01,-0.0,0.02,-4.51,-0.08,0.09
14:05:47.990,0.0,-0.01,0.02,-4.46,-0.01,-0.14
14:05:47.997,-0.0,-0.0,-0.0,-4.36,-0.01,-0.04
14:05:48.004,-0.0,-0.0,0.0,-4.36,0.07,-0.25
14:05:48.011,0.0,-0.01,-0.01,-4.44,0.1,0.0
14:05:48.019,-0.0,-0.01,0.0,-4.5,0.04,-0.05
14:05:48.026,-0.01,0.01,0.02,-4.48,-0.0,0.03
14:05:48.033,0.0,-0.01,-0.0,-4.49,-0.15,-0.07
14:05:48.041,0.0,-0.01,-0.0,-4.56,-0.04,0.08
14:05:48.048,-0.01,-0.02,0.0,-4.51,-0.02,0.04
14:05:48.055,-0.01,-0.0,-0.0,-4.44,0.02,-0.04
14:05:48.062,-0.0,-0.0,-0.0,-4.48,-0.11,0.21
14:05:48.070,0.02,0.01,-0.0,-4.49,0.09,-0.24
14:05:48.077,-0.0,-0.0,-0.0,-4.6,0.04,-0.07
14:05:48.084,-0.01,-0.01,0.01,-4.47,0.08,0.02
14:05:48.092,0.0,-0.0,0.01,-4.42,0.07,0.06
14:05:48.099,0.0,0.0,0.0,-4.47,0.02,-0.14
14:05:48.106,-0.01,-0.0,0.0,-4.41,0.07,-0.04
14:05:48.113,-0.01,-0.0,0.0,-4.51,0.08,-0.11
14:05:48.121,-0.0,0.0,0.0,-4.42,0.03,0.04
14:05:48.128,-0.0,-0.01,-0.0,-4.34,0.04,0.04
14:05:48.135,-0.01,-0.01,0.02,-4.42,-0.1,-0.04
14:05:48.143,-0.0,-0.01,0.0,-4.46,-0.08,0.05
14:05:48.150,-0.0,-0.0,-0.0,-4.5,-0.04,-0.01
14:05:48.157,0.0,-0.0,0.0,-4.4,-0.03,-0.02
14:05:48.165,0.01,0.01,0.0,-4.46,-0.06,0.07
14:05:48.172,-0.0,-0.0,-0.0,-4.5,-0.03,0.01
14:05:48.179,-0.01,-0.0,0.01,-4.56,-0.15,0.0
14:05:48.187,-0.0,-0.0,-0.0,-4.55,0.06,-0.01
14:05:48.194,-0.0,-0.0,-0.0,-4.45,0.01,0.05
14:05:48.201,-0.0,-0.0,-0.0,-4.4,-0.02,-0.08
14:05:48.209,-0.0,-0.01,0.0,-4.55,0.18,0.02
14:05:48.216,-0.0,-0.01,0.0,-4.36,-0.0,-0.17
14:05:48.223,-0.01,-0.0,-0.0,-4.36,0.08,-0.04
14:05:48.230,-0.0,-0.01,-0.0,-4.56,-0.13,0.08
14:05:48.238,-0.01,-0.01,-0.0,-4.44,-0.09,0.06
14:05:48.245,-0.0,0.0,-0.0,-4.39,-0.11,-0.01
14:05:48.252,-0.0,-0.0,0.0,-4.37,0.18,-0.07
14:05:48.260,-0.0,-0.02,-0.0,-4.56,0.05,-0.11
14:05:48.267,-0.0,-0.01,-0.0,-4.47,0.12,0.15
14:05:48.274,0.0,-0.01,-0.0,-4.39,-0.08,-0.11
14:05:48.281,-0.01,0.0,0.0,-4.44,-0.12,0.16
14:05:48.289,-0.0,-0.01,-0.0,-4.48,0.01,-0.08
14:05:48.296,-0.01,-0.0,0.0,-4.69,-0.11,0.02
14:05:48.303,-0.0,0.0,-0.0,-4.4,-0.05,0.15
14:05:48.311,-0.0,-0.01,-0.0,-4.26,-0.08,-0.06
14:05:48.318,0.01,-0.01,-0.0,-4.52,0.08,0.0
14:05:48.325,-0.01,-0.01,0.0,-4.52,0.14,-0.06
14:05:48.333,-0.0,-0.01,0.0,-4.46,-0.08,0.03
14:05:48.340,-0.0,-0.01,0.0,-4.47,0.02,-0.11
14:05:48.347,-0.0,-0.0,0.0,-4.53,-0.05,-0.04
14:05:48.354,0.01,-0.01,0.0,-4.55,0.01,0.05
14:05:48.362,-0.02,0.0,0.0,-4.43,0.14,-0.05
14:05:48.369,-0.0,-0.01,-0.0,-4.49,0.07,-0.06
14:05:48.376,0.01,-0.0,-0.0,-4.56,0.02,0.04
14:05:48.383,-0.01,-0.02,-0.0,-4.47,0.07,0.08
14:05:48.391,0.0,-0.01,-0.0,-4.54,-0.06,-0.05
14:05:48.398,-0.02,0.0,-0.0,-4.42,0.02,-0.02
14:05:48.405,-0.0,-0.0,0.02,-4.51,0.06,0.01
14:05:48.413,0.0,-0.0,-0.0,-4.48,0.08,0.02
14:05:48.420,-0.01,-0.0,-0.0,-4.41,-0.02,-0.07
14:05:48.427,-0.0,-0.01,-0.0,-4.53,0.03,-0.18
14:05:48.435,-0.0,-0.0,0.0,-4.45,0.01,-0.01
14:05:48.442,-0.01,-0.0,0.02,-4.47,0.01,-0.13
14:05:48.449,-0.0,-0.0,0.0,-4.46,-0.02,-0.04
14:05:48.456,-0.0,-0.01,-0.0,-4.54,0.06,0.01
14:05:48.464,0.01,-0.01,-0.0,-4.6,0.08,-0.21
14:05:48.471,-0.01,-0.01,0.0,-4.51,0.11,0.05
14:05:48.478,0.0,-0.01,0.0,-4.48,-0.05,0.03
14:05:48.486,-0.01,-0.01,0.0,-4.48,0.15,0.1
14:05:48.493,-0.01,-0.0,-0.01,-4.41,0.06,-0.01
14:05:48.500,-0.01,0.0,0.02,-4.41,-0.21,-0.05
14:05:48.507,-0.01,-0.0,0.0,-4.56,0.16,-0.11
14:05:48.515,-0.0,-0.01,0.0,-4.33,0.02,-0.08
14:05:48.522,-0.0,-0.01,-0.0,-4.5,0.05,0.11
14:05:48.529,-0.01,-0.01,-0.01,-4.43,-0.08,-0.01
14:05:48.537,0.01,-0.0,-0.0,-4.45,-0.01,0.21
14:05:48.544,-0.01,-0.0,0.0,-4.44,-0.01,0.03
14:05:48.551,-0.0,-0.01,0.01,-4.53,-0.03,-0.05
14:05:48.558,0.0,0.01,-0.0,-4.47,-0.11,0.15
14:05:48.566,-0.01,-0.01,-0.0,-4.61,0.06,-0.01
14:05:48.573,-0.0,-0.0,0.01,-4.45,-0.0,0.0
14:05:48.580,-0.01,-0.0,0.0,-4.37,-0.0,-0.05
14:05:48.588,-0.0,-0.0,0.01,-4.54,-0.06,0.08
14:05:48.595,-0.01,-0.0,0.01,-4.27,-0.13,-0.09
14:05:48.602,-0.01,-0.0,0.0,-4.44,-0.02,0.0
14:05:48.610,-0.0,-0.01,-0.0,-4.47,0.04,0.02
14:05:48.617,-0.0,0.0,-0.0,-4.51,0.11,-0.05
14:05:48.624,-0.0,-0.0,-0.01,-4.39,0.11,-0.05
14:05:48.631,-0.0,0.0,-0.0,-4.44,-0.11,0.11
14:05:48.639,-0.01,0.01,0.0,-4.58,-0.0,0.06
14:05:48.646,-0.0,-0.0,0.0,-4.44,-0.05,-0.1
14:05:48.653,-0.01,-0.01,-0.01,-4.47,-0.06,-0.05
14:05:48.661,-0.02,-0.0,-0.0,-4.5,0.08,0.05
