timestamp,acc_x,acc_y,acc_z,gyr_x,gyr_y,gyr_z
14:46:36.577,0.0,-0.0,0.0,-4.68,0.1,0.04
14:46:36.585,0.0,-0.0,0.0,-4.58,0.1,0.12
14:46:36.593,0.01,0.0,0.0,-4.53,-0.1,0.16
14:46:36.600,0.01,-0.0,0.0,-4.66,0.07,-0.05
14:46:36.608,0.0,-0.0,-0.01,-4.6,-0.13,0.2
14:46:36.615,0.0,0.0,0.01,-4.57,-0.15,0.16
14:46:36.623,0.01,0.01,0.01,-4.69,-0.1,0.13
14:46:36.630,0.0,-0.0,0.0,-4.7,-0.26,0.2
14:46:36.637,0.0,0.01,0.0,-4.49,-0.07,0.07
14:46:36.644,-0.0,0.01,0.0,-4.5,-0.17,0.17
14:46:36.651,0.0,0.0,0.01,-4.74,-0.12,0.09
14:46:36.659,-0.0,0.0,-0.0,-4.51,-0.26,0.19
14:46:36.666,0.0,-0.0,0.01,-4.37,0.01,0.19
14:46:36.673,-0.0,0.0,0.0,-4.76,-0.17,0.03
14:46:36.680,0.0,0.0,-0.0,-4.72,0.18,0.25
14:46:36.687,-0.0,0.0,-0.0,-4.6,0.06,0.18
14:46:36.694,-0.0,0.0,0.01,-4.71,-0.19,0.31
14:46:36.701,-0.0,-0.0,0.01,-4.62,-0.09,0.29
14:46:36.708,-0.0,0.0,0.0,-4.73,-0.17,0.13
14:46:36.715,0.01,0.0,0.0,-4.79,-0.14,0.06
14:46:36.723,0.0,0.01,0.0,-4.6,0.17,-0.07
14:46:36.730,0.0,-0.0,0.0,-4.76,-0.07,0.14
14:46:36.737,0.0,0.0,-0.0,-4.64,-0.23,0.1
14:46:36.744,0.0,-0.0,-0.01,-4.69,-0.12,0.27
14:46:36.752,0.0,0.0,0.0,-4.69,-0.25,0.09
14:46:36.759,0.0,0.0,-0.01,-4.6,-0.17,0.16
14:46:36.766,0.01,0.0,0.0,-4.73,-0.09,0.07
14:46:36.774,0.0,-0.0,0.01,-4.5,-0.03,0.21
14:46:36.781,0.01,0.0,0.0,-4.75,-0.13,0.17
14:46:36.788,0.01,-0.0,0.01,-4.6,-0.15,0.21
14:46:36.795,0.02,-0.0,0.0,-4.61,0.03,0.05
14:46:36.803,0.0,0.0,0.0,-4.66,0.01,-0.01
14:46:36.810,0.01,0.0,0.0,-4.63,-0.16,-0.07
14:46:36.817,-0.0,0.0,0.01,-4.41,0.11,-0.0
14:46:36.825,0.01,0.0,0.0,-4.57,-0.01,-0.02
14:46:36.832,0.01,0.02,0.0,-4.5,0.12,0.18
14:46:36.839,0.0,-0.0,-0.0,-4.56,0.09,0.1
14:46:36.846,0.0,0.0,0.01,-4.62,0.13,-0.06
14:46:36.854,0.01,0.0,0.01,-4.61,0.06,0.14
14:46:36.861,0.01,0.01,0.01,-4.59,-0.14,-0.04
14:46:36.868,0.0,0.0,-0.0,-4.62,-0.12,-0.17
14:46:36.876,-0.01,0.01,0.01,-4.7,0.05,0.07
14:46:36.883,-0.0,0.0,-0.02,-4.34,-0.0,-0.02
14:46:36.890,-0.0,0.0,-0.0,-4.52,0.12,0.09
14:46:36.897,-0.0,-0.0,-0.01,-4.5,0.1,-0.05
14:46:36.905,-0.0,-0.0,0.0,-4.47,0.14,-0.02
14:46:36.912,0.0,0.0,-0.0,-4.5,-0.07,-0.18
14:46:36.919,0.0,0.02,0.01,-4.73,-0.09,0.14
14:46:36.927,-0.0,0.0,0.01,-4.53,-0.07,-0.01
14:46:36.934,0.0,-0.0,0.0,-4.59,-0.07,-0.02
14:46:36.941,-0.0,0.0,0.01,-4.66,-0.24,0.11
14:46:36.948,-0.0,0.0,-0.0,-4.49,-0.07,0.11
14:46:36.956,-0.0,-0.01,0.0,-4.52,-0.12,0.15
14:46:36.963,-0.0,0.0,-0.02,-4.6,-0.09,0.09
14:46:36.970,0.0,-0.0,0.0,-4.73,-0.29,0.03
14:46:36.978,-0.0,0.0,0.0,-4.72,-0.06,0.31
14:46:36.985,0.01,0.0,-0.01,-4.61,-0.24,0.15
14:46:36.992,-0.01,0.0,0.0,-4.69,-0.06,-0.0
14:46:36.999,0.01,0.0,0.0,-4.56,-0.11,-0.03
14:46:37.007,0.0,0.0,0.0,-4.73,-0.0,0.18
14:46:37.014,0.0,0.01,-0.0,-4.66,-0.0,0.12
14:46:37.021,0.01,0.0,0.0,-4.49,-0.01,-0.04
14:46:37.029,0.01,0.0,-0.0,-4.76,-0.06,0.01
14:46:37.036,0.02,-0.0,0.0,-4.63,0.05,0.06
14:46:37.043,-0.0,-0.0,0.01,-4.52,0.01,-0.03
14:46:37.050,0.0,0.0,-0.0,-4.67,-0.19,0.09
14:46:37.058,0.0,0.0,0.01,-4.66,-0.11,0.04
14:46:37.065,-0.0,0.0,-0.01,-4.66,-0.25,0.17
14:46:37.072,0.01,0.0,0.0,-4.57,0.07,-0.16
14:46:37.080,0.02,-0.0,-0.0,-4.63,-0.1,0.02
14:46:37.087,0.01,-0.0,0.01,-4.6,-0.09,-0.03
14:46:37.094,0.0,0.01,-0.0,-4.69,-0.06,-0.12
14:46:37.101,0.01,0.0,-0.0,-4.47,0.01,-0.1
14:46:37.109,0.0,0.0,0.0,-4.63,0.08,-0.18
14:46:37.116,0.0,0.0,-0.0,-4.57,-0.02,-0.19
14:46:37.123,0.02,0.01,-0.0,-4.61,0.13,-0.27
14:46:37.131,0.0,0.0,0.0,-4.69,0.26,-0.15
14:46:37.138,0.0,0.0,-0.01,-4.53,0.09,-0.41
14:46:37.145,-0.0,-0.0,-0.0,-4.56,-0.01,-0.09
14:46:37.152,0.01,0.0,-0.01,-4.53,0.25,-0.31
14:46:37.160,0.0,0.0,0.01,-4.47,0.07,-0.27
14:46:37.167,0.0,-0.0,0.0,-4.76,0.07,-0.18
14:46:37.174,-0.0,-0.0,0.0,-4.47,0.07,-0.38
14:46:37.181,0.0,-0.0,-0.0,-4.58,0.15,-0.26
14:46:37.189,0.0,0.02,-0.0,-4.69,2.11,-0.15
14:46:37.196,0.0,-0.0,0.0,-4.51,-0.02,-0.15
14:46:37.203,0.0,0.0,0.0,-4.66,-0.08,-0.13
14:46:37.210,0.01,0.01,0.0,-4.77,0.11,-0.41
14:46:37.218,0.0,-0.0,-0.0,-4.77,0.04,-0.29
14:46:37.225,0.0,-0.0,0.0,-4.69,-0.01,-0.19
14:46:37.232,-0.0,0.0,-0.0,-4.8,0.01,-0.08
14:46:37.240,-0.0,0.01,-0.0,-4.64,0.22,-0.26
14:46:37.247,0.0,0.0,-0.0,-4.4,-0.08,-0.02
14:46:37.254,-0.0,0.0,0.01,-4.58,-0.0,-0.15
14:46:37.261,0.0,-0.0,0.01,-4.56,0.03,-0.25
14:46:37.269,0.0,0.0,0.0,-4.74,0.06,-0.25
14:46:37.276,-0.0,0.0,-0.02,-4.56,0.05,-0.29
14:46:37.283,0.0,0.01,0.01,-4.43,0.02,-0.23
14:46:37.290,0.01,0.0,-0.0,-4.46,-0.03,-0.14
14:46:37.298,0.0,0.0,-0.0,-4.52,-0.05,-0.22
14:46:37.305,0.0,-0.0,-0.0,-4.45,0.13,-0.17
14:46:37.312,0.0,-0.0,0.0,-4.64,0.27,-0.31
14:46:37.319,0.01,0.02,0.0,-4.56,-0.0,-0.31
14:46:37.327,0.0,0.0,-0.0,-4.51,0.19,-0.06
14:46:37.334,0.0,0.02,-0.0,-4.62,0.1,-0.25
14:46:37.341,-0.01,0.01,-0.01,-4.71,0.14,-0.2
14:46:37.349,-0.0,-0.0,-0.0,-4.55,0.24,-0.12
14:46:37.356,-0.01,0.0,0.0,-4.49,-0.11,-0.37
14:46:37.363,-0.01,0.0,-0.0,-4.55,-0.06,-0.3
14:46:37.370,0.0,0.0,0.01,-4.48,0.01,-0.48
14:46:37.378,-0.0,-0.0,-0.01,-4.53,0.02,-0.37
14:46:37.385,0.01,0.01,-0.0,-4.45,0.06,-0.56
14:46:37.392,0.0,0.0,0.0,-4.47,-0.01,-0.35
14:46:37.400,0.0,0.0,0.0,-4.53,-0.15,-0.22
14:46:37.407,-0.0,0.0,0.01,-4.47,0.13,-0.39
14:46:37.414,-0.0,0.0,0.01,-4.39,0.09,-0.27
14:46:37.421,0.0,-0.0,0.01,-4.53,-1.7,-0.25
14:46:37.429,-0.0,0.0,-0.0,-4.55,0.1,-0.24
14:46:37.436,-0.0,0.0,0.01,-4.58,0.16,-0.4
14:46:37.444,-0.0,-0.0,-0.0,-4.43,-0.11,-0.22
14:46:37.451,-0.0,0.02,0.0,-4.5,0.04,-0.22
14:46:37.458,-0.01,0.0,0.0,-4.62,0.07,-0.06
14:46:37.466,-0.01,0.0,-0.0,-4.6,2.11,-0.26
14:46:37.473,-0.0,0.0,0.0,-4.55,0.11,-0.28
14:46:37.480,-0.0,0.01,-0.01,-4.56,0.22,-0.24
14:46:37.487,0.0,0.0,-0.01,-4.5,0.11,0.03
14:46:37.495,-0.0,-0.01,0.01,-4.72,-0.11,-0.22
14:46:37.502,-0.0,0.0,0.01,-4.37,-0.14,0.06
14:46:37.509,-0.0,0.0,0.0,-4.45,-0.07,-0.04
14:46:37.517,-0.01,-0.0,-0.02,-4.53,-0.09,0.01
14:46:37.524,-0.01,-0.0,0.0,-4.69,-0.1,0.06
14:46:37.531,-0.01,-0.0,0.0,-4.74,-0.2,0.07
14:46:37.538,-0.01,0.0,0.01,-4.67,-0.12,0.14
14:46:37.546,-0.01,0.0,0.01,-4.28,-0.16,0.04
14:46:37.553,-0.01,0.01,0.0,-4.61,-0.02,0.48
14:46:37.560,-0.01,0.0,0.0,-4.34,-0.08,0.28
14:46:37.567,-0.0,0.0,0.0,-4.76,-0.09,0.26
14:46:37.575,0.0,0.0,0.02,-4.63,-0.14,0.29
14:46:37.582,-0.0,-0.0,0.01,-4.6,0.04,0.35
14:46:37.589,-0.0,0.0,-0.01,-4.5,-0.31,0.28
14:46:37.597,0.0,0.01,0.0,-4.6,-0.3,0.55
14:46:37.604,0.0,-0.0,0.0,-4.56,-0.06,0.48
14:46:37.611,-0.01,0.01,0.01,-4.61,-0.32,0.41
14:46:37.618,0.0,0.0,0.0,-4.54,-0.17,0.36
14:46:37.626,0.0,-0.0,-0.0,-4.72,-0.25,0.28
14:46:37.633,-0.0,0.0,0.0,-4.77,-0.09,0.26
14:46:37.640,0.0,0.0,-0.01,-4.66,-0.0,0.3
14:46:37.648,0.01,0.0,0.0,-4.61,-0.14,0.26
14:46:37.655,0.0,-0.0,-0.01,-4.6,-0.12,0.18
14:46:37.662,0.02,0.0,0.01,-4.57,0.15,0.11
14:46:37.669,0.0,-0.01,0.0,-4.46,-0.2,0.17
14:46:37.677,0.0,0.0,-0.01,-4.64,-0.12,0.17
14:46:37.684,-0.01,-0.0,-0.02,-4.65,-0.09,0.12
14:46:37.691,0.01,0.0,-0.01,-4.6,-0.22,-0.02
14:46:37.698,0.01,0.0,-0.0,-4.59,-0.06,0.14
14:46:37.706,0.0,-0.01,0.01,-4.65,-0.16,0.1
14:46:37.713,0.0,0.0,0.01,-4.66,-0.03,0.02
14:46:37.720,0.0,0.0,-0.0,-4.74,-0.1,0.17
14:46:37.727,-0.0,-0.0,0.01,-4.56,-0.18,-0.11
14:46:37.735,-0.0,0.0,0.01,-4.5,-0.16,-0.04
14:46:37.742,-0.0,-0.0,-0.0,-4.68,0.16,0.05
14:46:37.749,0.01,0.0,0.0,-4.6,-0.17,-0.04
14:46:37.757,-0.0,0.0,-0.0,-4.72,0.09,-0.14
14:46:37.764,-0.0,0.0,-0.0,-4.71,-0.06,0.15
14:46:37.771,-0.0,0.0,-0.0,-4.69,2.04,0.03
14:46:37.778,-0.01,0.01,-0.01,-4.62,-0.13,0.06
14:46:37.786,-0.0,0.0,-0.0,-4.56,-0.07,0.01
14:46:37.793,-0.0,0.0,-0.02,-4.65,-0.12,0.06
14:46:37.800,-0.0,0.01,0.0,-4.6,-0.17,0.12
14:46:37.807,0.0,0.01,-0.0,-4.57,-0.27,0.08
14:46:37.815,0.0,0.0,0.0,-4.53,-0.12,0.17
14:46:37.822,-0.0,0.0,-0.0,-4.59,-0.09,0.04
14:46:37.829,-0.0,-0.0,0.0,-4.63,-0.12,-0.03
14:46:37.836,0.0,0.02,0.01,-4.6,-0.11,0.14
14:46:37.844,-0.0,0.01,0.01,-4.65,0.11,0.15
14:46:37.851,0.01,-0.0,0.0,-4.73,0.08,-0.02
14:46:37.858,-0.0,-0.0,0.01,-4.52,-0.09,0.02
14:46:37.865,0.0,0.0,0.0,-4.6,-0.0,0.17
14:46:37.873,0.0,0.01,0.01,-4.51,-0.13,0.23
14:46:37.880,-0.0,-0.0,0.0,-4.56,-0.08,0.28
14:46:37.887,0.0,-0.0,0.0,-4.73,-0.08,0.2
14:46:37.895,-0.0,0.0,0.0,-4.58,0.01,0.22
14:46:37.902,-0.0,0.0,-0.0,-4.52,-0.16,0.14
14:46:37.910,-0.0,0.0,0.01,-4.57,-0.12,0.07
14:46:37.917,-0.0,0.0,-0.0,-4.36,0.02,0.03
14:46:37.924,-0.0,-0.0,0.0,-4.53,0.01,0.08
14:46:37.931,-0.0,0.0,-0.02,-4.72,0.02,0.05
14:46:37.939,-0.0,0.0,-0.01,-4.67,-0.06,0.01
14:46:37.946,0.0,0.01,0.01,-4.58,-0.19,0.12
14:46:37.953,0.0,0.0,-0.01,-4.6,-0.08,0.23
14:46:37.961,0.0,-0.0,0.0,-4.53,-0.11,0.01
14:46:37.968,0.0,0.0,0.0,-4.53,-0.08,0.2
14:46:37.975,0.0,0.0,-0.02,-4.59,-0.11,0.21
14:46:37.982,-0.0,0.0,-0.0,-4.73,-0.07,0.15
14:46:37.990,0.0,0.0,-0.0,-4.47,-0.02,-0.03
14:46:37.997,-0.0,0.0,-0.0,-4.42,0.02,0.08
14:46:38.004,-0.0,0.0,0.01,-4.5,-0.02,0.2
14:46:38.012,-0.0,0.0,0.0,-4.79,-0.15,0.13
14:46:38.019,-0.0,0.0,0.0,-4.63,-0.27,0.46
14:46:38.026,-0.01,0.0,0.0,-4.73,-0.2,0.31
14:46:38.033,-0.01,0.0,-0.0,-4.6,-0.47,0.25
14:46:38.041,-0.01,-0.0,0.01,-4.73,-0.28,0.53
14:46:38.048,-0.0,0.01,-0.01,-4.6,-0.12,0.35
14:46:38.055,-0.02,0.01,0.0,-4.86,-0.15,0.59
14:46:38.062,-0.0,0.0,0.01,-4.73,-0.21,0.75
14:46:38.070,-0.0,0.0,0.0,-4.69,-0.19,0.62
14:46:38.077,-0.01,0.0,-0.02,-4.5,-0.36,0.59
14:46:38.084,-0.01,0.0,0.0,-4.7,-0.19,0.7
14:46:38.091,0.01,0.01,0.0,-4.62,-0.42,0.65
14:46:38.099,0.0,-0.0,0.01,-4.74,-0.23,0.68
14:46:38.106,-0.02,0.0,-0.02,-4.69,-0.39,0.55
14:46:38.113,0.0,0.0,-0.0,-4.63,-0.22,0.63
14:46:38.120,0.0,-0.0,-0.02,-4.79,-0.22,0.51
14:46:38.128,0.0,0.0,-0.0,-4.59,-0.26,0.72
14:46:38.135,0.0,0.0,-0.01,-4.64,-0.15,0.69
14:46:38.142,-0.0,-0.0,0.0,-4.68,-0.26,0.72
14:46:38.149,-0.0,-0.0,0.01,-4.68,-0.47,0.75
14:46:38.157,-0.0,0.01,0.0,-4.56,-0.38,0.49
14:46:38.164,0.01,0.0,-0.01,-4.72,-0.39,0.66
14:46:38.171,-0.0,0.0,0.01,-4.57,-0.2,0.62
14:46:38.179,-0.0,0.01,0.01,-4.65,-0.51,0.86
14:46:38.186,-0.0,-0.01,0.0,-4.71,-0.41,0.9
14:46:38.193,-0.0,-0.0,-0.01,-4.58,-0.28,0.9
14:46:38.200,-0.0,0.01,0.01,-4.81,-0.35,0.84
14:46:38.208,-0.01,0.0,0.0,-4.8,-0.35,0.78
14:46:38.215,0.0,0.01,0.01,-4.62,-0.38,0.69
14:46:38.222,0.01,0.01,-0.0,-4.48,-0.26,0.91
14:46:38.230,0.0,0.0,0.01,-4.57,-0.38,0.78
14:46:38.237,0.01,0.0,0.01,-4.61,-0.25,0.53
14:46:38.244,0.02,-0.0,0.0,-4.52,-0.08,0.59
14:46:38.251,0.02,0.01,-0.01,-4.61,-0.13,0.54
14:46:38.259,0.02,0.01,-0.0,-4.55,-0.13,0.3
14:46:38.266,0.02,0.01,0.0,-4.66,-0.16,0.38
14:46:38.273,0.02,-0.0,-0.0,-4.51,-0.15,0.3
14:46:38.280,0.01,0.01,0.0,-4.66,-0.01,0.14
14:46:38.288,0.01,-0.0,0.01,-4.66,-0.01,0.06
14:46:38.295,0.01,0.01,0.01,-4.63,0.06,0.13
14:46:38.302,0.0,0.0,0.0,-4.71,-0.06,0.27
14:46:38.310,0.0,0.0,-0.0,-4.68,-0.19,-0.05
14:46:38.317,-0.01,0.01,0.0,-4.66,0.06,-0.06
14:46:38.324,0.01,0.0,0.0,-4.52,-0.09,-0.01
14:46:38.331,0.0,0.0,0.0,-4.61,0.01,0.12
14:46:38.339,0.02,0.0,0.01,-4.44,0.11,0.02
14:46:38.346,-0.0,0.0,0.01,-4.7,-0.1,-0.06
14:46:38.353,0.01,0.0,0.0,-4.56,-0.19,0.07
14:46:38.360,0.0,0.0,0.01,-4.68,0.05,-0.01
14:46:38.368,0.01,0.0,0.0,-4.53,-0.07,0.11
14:46:38.375,0.0,0.01,0.0,-4.55,-0.02,0.01
14:46:38.382,-0.0,-0.0,0.0,-4.52,-0.15,-0.02
14:46:38.389,0.0,0.01,-0.0,-4.52,-0.19,-0.02
14:46:38.397,-0.0,-0.0,0.0,-4.56,-0.13,-0.0
14:46:38.404,-0.0,0.0,-0.0,-4.64,-0.09,0.24
14:46:38.411,0.0,0.0,0.0,-4.39,-0.15,0.2
14:46:38.418,-0.0,0.0,0.01,-4.6,-0.06,0.12
14:46:38.426,0.0,0.0,0.0,-4.57,-0.1,0.24
14:46:38.433,-0.0,0.0,0.01,-4.63,0.05,0.12
14:46:38.441,-0.0,0.0,0.0,-4.54,-0.11,0.09
14:46:38.448,0.0,0.0,0.01,-4.52,-0.28,0.25
14:46:38.455,0.0,0.0,0.01,-4.58,0.07,-0.05
14:46:38.463,0.0,0.02,0.01,-4.66,-0.03,0.17
14:46:38.470,0.01,0.01,-0.0,-4.46,-0.06,0.04
14:46:38.477,0.0,-0.0,-0.01,-4.6,0.11,0.23
14:46:38.484,0.0,0.0,0.0,-4.63,-0.06,-0.01
14:46:38.492,0.01,-0.0,0.0,-4.55,-0.2,0.16
14:46:38.499,0.01,-0.0,0.0,-4.48,0.1,-0.13
14:46:38.506,0.01,0.0,0.0,-4.57,0.07,0.06
14:46:38.514,0.01,-0.0,-0.0,-4.19,0.01,-0.22
14:46:38.521,0.02,0.0,0.01,-4.42,0.14,-0.37
14:46:38.528,0.02,0.0,0.01,-4.54,0.31,-0.35
14:46:38.535,0.01,0.0,0.0,-4.59,0.04,1.23
14:46:38.543,0.02,-0.01,0.0,-4.45,0.33,1.31
14:46:38.550,0.03,0.01,0.01,-4.54,0.37,-0.99
14:46:38.557,0.02,0.0,0.01,-4.51,0.46,-1.12
14:46:38.564,0.03,0.0,0.01,-4.64,0.62,-1.28
14:46:38.572,0.03,-0.0,0.0,-4.43,0.55,-1.33
14:46:38.579,0.02,0.0,0.01,-4.46,0.57,-1.53
14:46:38.586,0.03,-0.01,0.01,-4.52,0.69,-1.7
14:46:38.594,0.02,0.0,0.01,-4.41,0.89,-1.99
14:46:38.601,0.03,0.0,0.0,-4.33,1.09,-2.07
14:46:38.608,0.03,0.01,0.0,-4.29,0.91,-2.37
14:46:38.616,0.03,-0.0,0.01,-4.05,1.04,-2.41
14:46:38.623,0.03,0.0,0.01,-4.27,1.2,-2.76
14:46:38.630,0.02,0.01,0.0,-4.29,1.22,-2.87
14:46:38.637,0.02,-0.0,0.01,-4.09,1.38,-3.15
14:46:38.645,0.03,0.01,-0.0,-4.13,1.48,-3.42
14:46:38.652,0.03,0.01,-0.0,-4.23,1.49,-3.67
14:46:38.659,0.03,-0.01,0.01,-4.44,1.69,-3.7
14:46:38.666,0.03,0.01,0.0,-4.12,1.73,-4.04
14:46:38.674,0.03,0.0,0.01,-4.06,1.95,-4.2
14:46:38.681,0.03,0.0,0.01,-3.93,1.86,-6.47
14:46:38.688,0.03,-0.0,-0.0,-3.93,1.9,-4.63
14:46:38.695,0.03,-0.0,0.01,-4.11,2.11,-4.87
14:46:38.703,0.03,0.0,0.01,-4.04,2.2,-5.15
14:46:38.710,0.03,-0.0,0.01,-3.98,2.35,-5.58
14:46:38.717,0.03,-0.0,0.01,-3.76,2.4,-5.79
14:46:38.725,0.02,0.0,0.0,-3.98,2.43,-5.89
14:46:38.732,0.03,-0.0,0.0,-5.85,2.57,-6.24
14:46:38.739,0.03,0.0,0.0,-3.9,2.49,-6.26
14:46:38.746,0.03,-0.01,0.0,-3.94,2.58,-6.67
14:46:38.754,0.01,0.0,0.01,-3.85,2.81,-6.67
14:46:38.761,0.02,0.0,0.01,-3.66,2.79,-6.9
14:46:38.768,0.01,-0.0,0.01,-3.95,2.91,-7.18
14:46:38.775,0.01,0.0,0.01,-5.81,3.01,-7.38
14:46:38.783,0.0,0.0,0.0,-3.71,3.01,-7.47
14:46:38.790,0.0,0.0,0.0,-3.77,3.02,-7.6
14:46:38.797,0.0,0.0,-0.0,-3.87,3.12,-7.7
14:46:38.804,-0.0,0.01,0.01,-3.84,2.95,-7.77
14:46:38.812,-0.0,-0.0,0.0,-3.76,3.18,-8.04
14:46:38.819,-0.0,0.0,-0.0,-3.65,3.15,-8.16
14:46:38.826,-0.0,-0.0,-0.01,-3.79,3.33,-8.13
14:46:38.833,-0.01,0.0,-0.0,-3.85,3.38,-8.44
14:46:38.841,-0.01,0.0,0.0,-3.67,3.36,-8.38
14:46:38.848,-0.01,0.0,0.0,-3.67,3.22,-8.53
14:46:38.855,-0.02,0.0,-0.0,-3.67,3.4,-8.54
14:46:38.862,-0.01,0.0,0.01,-3.7,3.52,-8.8
14:46:38.870,-0.02,0.0,-0.0,-3.79,3.43,-8.8
14:46:38.877,-0.01,0.0,-0.0,-3.6,3.65,-8.8
14:46:38.884,-0.02,-0.0,0.01,-3.68,3.54,-9.17
14:46:38.892,-0.02,0.0,0.01,-3.6,3.65,-9.28
14:46:38.899,-0.02,0.0,-0.01,-3.86,3.91,-9.4
14:46:38.906,-0.01,0.0,-0.01,-3.77,3.75,-9.55
14:46:38.913,-0.02,0.0,-0.01,-3.67,3.87,-9.57
14:46:38.921,-0.02,-0.0,-0.0,-3.66,3.85,-9.6
14:46:38.928,-0.01,-0.0,0.0,-3.55,3.89,-9.86
14:46:38.935,-0.02,0.01,-0.0,-3.44,4.01,-10.16
14:46:38.942,-0.02,0.0,-0.0,-3.76,4.36,-10.26
14:46:38.950,-0.01,-0.0,0.0,-3.55,4.14,-10.35
14:46:38.957,-0.02,-0.0,-0.01,-3.46,4.17,-10.56
14:46:38.964,-0.02,-0.0,-0.0,-3.51,4.41,-10.68
14:46:38.972,-0.01,0.0,0.01,-3.47,4.4,-10.9
14:46:38.979,-0.03,0.0,-0.0,-3.64,4.4,-11.06
14:46:38.986,-0.03,-0.0,0.0,-3.5,4.69,-11.06
14:46:38.993,-0.03,0.0,0.0,-3.59,4.47,-11.3
14:46:39.001,-0.03,-0.0,-0.01,-3.44,4.6,-11.44
14:46:39.008,-0.04,0.01,-0.01,-3.54,4.48,-11.54
14:46:39.015,-0.04,-0.01,-0.01,-3.44,4.51,-11.54
14:46:39.022,-0.05,-0.0,-0.0,-3.48,4.47,-11.6
14:46:39.030,-0.05,0.0,-0.0,-3.49,4.66,-11.73
14:46:39.037,-0.05,-0.0,-0.01,-3.55,4.79,-11.8
14:46:39.044,-0.06,-0.01,-0.01,-3.59,4.89,-11.79
14:46:39.051,-0.06,-0.0,-0.01,-3.5,4.65,-11.76
14:46:39.059,-0.07,-0.0,-0.02,-3.53,4.62,-11.92
14:46:39.066,-0.07,-0.0,-0.01,-3.64,4.72,-11.8
14:46:39.073,-0.07,-0.0,-0.01,-3.48,4.7,-11.85
14:46:39.080,-0.07,0.0,-0.01,-3.63,4.81,-11.77
14:46:39.088,-0.07,-0.0,-0.01,-3.53,4.79,-11.88
14:46:39.095,-0.08,-0.0,-0.01,-3.67,4.72,-11.72
14:46:39.102,-0.08,-0.0,0.01,-3.46,4.69,-11.93
14:46:39.110,-0.08,0.0,-0.0,-3.51,4.45,-11.73
14:46:39.117,-0.08,-0.0,-0.01,-3.44,4.52,-11.7
14:46:39.124,-0.1,-0.0,-0.01,-3.48,4.58,-11.46
14:46:39.131,-0.1,-0.0,-0.02,-3.5,4.3,-11.49
14:46:39.139,-0.1,-0.01,-0.01,-3.56,4.46,-11.28
14:46:39.146,-0.11,0.0,-0.02,-3.56,4.2,-11.14
14:46:39.153,-0.12,-0.0,-0.02,-3.55,4.26,-10.83
14:46:39.160,-0.13,0.0,-0.01,-3.68,6.03,-10.64
14:46:39.168,-0.13,-0.0,-0.0,-3.52,3.79,-10.31
14:46:39.175,-0.13,0.0,-0.02,-3.69,3.63,-10.06
14:46:39.182,-0.14,-0.0,-0.01,-3.76,3.63,-9.59
14:46:39.190,-0.14,-0.0,-0.02,-3.77,3.6,-9.39
14:46:39.197,-0.15,-0.01,-0.02,-3.89,3.23,-8.91
14:46:39.204,-0.16,-0.0,-0.02,-3.82,3.17,-8.6
14:46:39.211,-0.17,-0.0,-0.02,-3.64,2.98,-8.03
14:46:39.219,-0.16,0.0,-0.02,-3.85,2.72,-7.6
14:46:39.226,-0.18,-0.0,-0.01,-3.76,2.52,-7.11
14:46:39.233,-0.17,0.0,-0.02,-1.96,2.57,-6.72
14:46:39.241,-0.17,-0.0,-0.01,-3.86,2.22,-6.33
14:46:39.248,-0.17,-0.0,-0.0,-4.21,0.27,-5.99
14:46:39.255,-0.17,0.0,-0.01,-4.13,1.83,-5.66
14:46:39.263,-0.16,-0.01,-0.01,-4.14,1.89,-5.36
14:46:39.270,-0.17,-0.02,-0.02,-4.15,1.81,-5.0
14:46:39.277,-0.17,-0.0,-0.01,-4.29,1.62,-4.33
14:46:39.284,-0.15,0.01,-0.01,-4.15,1.49,-4.09
14:46:39.292,-0.16,-0.0,-0.02,-4.27,1.14,-3.84
14:46:39.299,-0.15,0.01,-0.03,-4.54,1.05,-3.26
14:46:39.306,-0.17,-0.02,-0.0,-4.47,0.84,-2.65
14:46:39.313,-0.19,-0.01,0.0,-4.46,0.44,-2.17
14:46:39.321,-0.18,0.01,-0.02,-4.45,0.15,-1.64
14:46:39.328,-0.17,0.0,-0.03,-4.42,-0.09,-1.44
14:46:39.335,-0.19,0.0,-0.03,-4.54,-0.15,-0.83
14:46:39.343,-0.2,-0.01,-0.03,-4.69,-0.28,-0.05
14:46:39.350,-0.2,-0.01,-0.01,-4.45,-0.43,0.52
14:46:39.357,-0.2,-0.04,-0.05,-4.13,2.01,-0.4
14:46:39.364,-0.19,-0.01,-0.01,-4.5,-0.8,-0.97
14:46:39.372,-0.15,-0.01,-0.06,-4.4,-0.7,-1.18
14:46:39.379,-0.03,-0.0,-0.02,-4.41,-0.87,-0.87
14:46:39.386,-0.19,0.03,-0.02,-4.37,-1.29,-0.33
14:46:39.393,-0.1,0.01,-0.02,-4.58,-1.4,0.29
14:46:39.401,-0.15,-0.01,-0.02,-4.64,-1.8,-0.6
14:46:39.408,-0.18,-0.02,-0.01,-4.53,-1.84,1.97
14:46:39.415,-0.19,-0.0,-0.01,-4.7,-1.77,2.62
14:46:39.423,-0.18,-0.01,0.01,-4.99,-1.72,3.27
14:46:39.430,-0.2,-0.0,0.01,-4.86,-1.72,3.84
14:46:39.437,-0.2,0.01,-0.01,-4.97,-1.82,4.53
14:46:39.445,-0.2,-0.01,-0.02,-5.09,-1.86,5.19
14:46:39.452,-0.2,-0.0,-0.01,-5.13,-2.09,5.59
14:46:39.460,-0.21,-0.0,-0.03,-5.08,-2.15,6.11
14:46:39.467,-0.21,0.0,-0.01,-5.15,-2.65,6.81
14:46:39.474,-0.2,-0.01,-0.01,-5.18,-2.51,7.35
14:46:39.481,-0.19,-0.01,-0.02,-5.21,-2.94,7.94
14:46:39.489,-0.18,-0.0,-0.02,-5.22,-3.45,8.37
14:46:39.496,-0.17,0.01,-0.02,-5.38,-3.24,8.86
14:46:39.503,-0.18,-0.0,-0.01,-5.46,-3.4,9.02
14:46:39.511,-0.14,-0.0,-0.02,-5.53,-3.6,9.76
14:46:39.518,-0.14,-0.0,-0.01,-5.24,-3.56,9.75
14:46:39.525,-0.14,0.01,-0.02,-5.34,-3.58,9.91
14:46:39.532,-0.12,-0.0,-0.02,-5.64,-5.64,10.04
14:46:39.540,-0.11,0.0,-0.02,-5.39,-3.78,10.11
14:46:39.547,-0.11,0.0,-0.01,-5.51,-3.99,10.11
14:46:39.554,-0.1,0.0,-0.01,-5.38,-4.08,10.32
14:46:39.562,-0.1,-0.0,-0.01,-5.55,-3.96,10.4
14:46:39.569,-0.1,-0.0,-0.01,-5.59,-4.09,10.56
14:46:39.576,-0.1,-0.0,-0.0,-5.55,-4.17,10.64
14:46:39.584,-0.1,-0.0,-0.01,-5.46,-4.18,10.95
14:46:39.591,-0.1,-0.0,-0.01,-5.66,-4.27,10.9
14:46:39.598,-0.1,-0.0,-0.02,-5.7,-4.44,9.15
14:46:39.605,-0.09,-0.0,-0.01,-5.31,-4.4,11.23
14:46:39.613,-0.11,0.0,-0.01,-5.41,-4.48,11.18
14:46:39.620,-0.11,-0.0,-0.01,-5.42,-4.81,11.56
14:46:39.627,-0.09,-0.0,-0.0,-5.47,-4.6,11.64
14:46:39.635,-0.1,0.0,-0.02,-5.58,-4.57,11.98
14:46:39.642,-0.1,0.0,-0.01,-5.6,-4.66,11.79
14:46:39.649,-0.1,-0.0,-0.01,-5.51,-4.76,12.03
14:46:39.656,-0.09,-0.0,-0.02,-5.63,-4.75,12.14
14:46:39.664,-0.07,-0.0,-0.01,-5.79,-4.6,12.3
14:46:39.671,-0.07,0.0,-0.01,-5.64,-4.77,12.26
14:46:39.678,-0.07,-0.0,-0.01,-5.54,-4.8,12.33
14:46:39.685,-0.07,0.0,-0.01,-5.66,-4.73,12.49
14:46:39.693,-0.08,-0.0,-0.02,-5.66,-5.05,12.61
14:46:39.700,-0.08,0.0,-0.01,-5.78,-4.99,12.93
14:46:39.707,-0.08,0.0,-0.01,-5.65,-5.14,12.79
14:46:39.715,-0.07,-0.0,-0.01,-5.75,-5.21,15.01
14:46:39.722,-0.07,0.0,-0.0,-5.63,-3.73,12.88
14:46:39.729,-0.07,0.0,-0.0,-5.8,-5.28,13.15
14:46:39.737,-0.07,0.0,-0.0,-5.91,-5.37,13.58
14:46:39.744,-0.07,0.0,-0.01,-5.9,-5.5,13.4
14:46:39.751,-0.07,-0.0,-0.0,-7.81,-5.42,13.56
14:46:39.758,-0.06,-0.0,-0.0,-5.98,-5.45,13.65
14:46:39.766,-0.07,-0.01,-0.01,-5.76,-3.73,13.63
14:46:39.773,-0.05,-0.0,0.01,-7.81,-5.55,13.85
14:46:39.780,-0.05,-0.0,-0.01,-5.79,-5.73,14.04
14:46:39.787,-0.05,-0.0,-0.0,-5.92,-5.75,14.13
14:46:39.795,-0.05,0.0,-0.01,-6.04,-5.82,14.34
14:46:39.802,-0.05,-0.0,-0.0,-6.11,-5.93,14.37
14:46:39.809,-0.07,0.0,-0.02,-5.82,-5.93,14.43
14:46:39.817,-0.06,0.0,-0.01,-5.85,-5.86,14.59
14:46:39.824,-0.05,0.0,-0.0,-5.96,-6.18,14.77
14:46:39.831,-0.07,-0.0,0.0,-5.95,-6.07,16.94
14:46:39.839,-0.05,0.0,-0.01,-6.0,-5.94,15.14
14:46:39.846,-0.05,0.0,0.0,-6.15,-6.1,15.14
14:46:39.853,-0.04,0.01,0.0,-6.09,-6.22,15.36
14:46:39.860,-0.04,0.01,-0.0,-6.18,-6.14,15.23
14:46:39.868,-0.02,0.0,-0.0,-6.21,-5.86,15.17
14:46:39.875,-0.01,-0.0,-0.0,-6.19,-5.8,15.41
14:46:39.882,-0.0,0.01,-0.01,-6.15,-5.77,15.13
14:46:39.890,-0.0,0.0,0.01,-6.22,-5.95,14.98
14:46:39.897,0.0,-0.0,0.01,-6.08,-5.92,14.71
14:46:39.904,0.02,-0.0,0.0,-6.03,-5.87,14.67
14:46:39.911,0.03,-0.01,0.01,-5.98,-5.8,14.33
14:46:39.919,0.04,0.01,0.01,-5.95,-5.51,14.17
14:46:39.926,0.04,0.01,0.01,-6.02,-5.56,13.84
14:46:39.933,0.04,-0.01,0.0,-6.06,-5.21,13.51
14:46:39.940,0.06,0.01,0.01,-5.89,-5.24,13.21
14:46:39.948,0.06,0.0,0.01,-5.79,-5.02,12.66
14:46:39.955,0.06,0.01,0.01,-5.76,-4.9,12.41
14:46:39.962,0.06,0.0,0.01,-5.66,-4.76,12.17
14:46:39.970,0.06,0.0,0.01,-5.6,-4.7,11.63
14:46:39.977,0.07,0.0,0.01,-5.54,-4.5,11.21
14:46:39.984,0.06,0.01,-0.01,-5.68,-4.43,10.96
14:46:39.991,0.06,0.01,-0.02,-5.6,-4.13,10.72
14:46:39.999,0.07,-0.01,-0.02,-5.54,-4.01,10.18
14:46:40.006,0.08,-0.0,0.0,-5.75,-3.92,9.54
14:46:40.013,0.08,-0.02,0.01,-5.5,-3.5,9.02
14:46:40.021,0.07,-0.0,0.03,-5.45,-3.53,8.48
14:46:40.028,0.08,-0.01,0.01,-5.36,-3.35,8.5
14:46:40.035,0.07,-0.0,0.0,-5.47,-3.22,8.02
14:46:40.042,0.06,-0.0,0.0,-5.3,-2.91,7.59
14:46:40.050,0.06,-0.0,0.01,-5.39,-3.02,7.3
14:46:40.057,0.07,0.0,-0.01,-5.66,-3.01,7.56
14:46:40.064,0.05,0.0,-0.0,-5.69,-2.79,7.32
14:46:40.071,0.05,0.0,0.01,-5.31,-2.87,5.27
14:46:40.079,0.05,-0.0,0.01,-5.28,-2.7,6.95
14:46:40.086,0.05,0.0,0.01,-5.37,-2.62,6.88
14:46:40.093,0.05,0.0,0.01,-5.43,-2.59,6.78
14:46:40.101,0.05,0.0,0.0,-5.24,-2.6,6.6
14:46:40.108,0.06,-0.01,0.0,-5.45,-2.51,6.52
14:46:40.115,0.06,-0.0,0.0,-5.22,-2.15,6.14
14:46:40.122,0.05,-0.0,-0.0,-5.25,-2.5,6.05
14:46:40.130,0.07,-0.0,0.01,-5.24,-1.99,5.66
14:46:40.137,0.08,-0.0,0.01,-5.26,-1.71,5.33
14:46:40.144,0.09,-0.01,0.0,-5.2,-1.73,4.78
14:46:40.151,0.09,-0.01,0.01,-5.21,-1.66,4.53
14:46:40.159,0.1,-0.0,0.01,-5.14,-1.25,4.13
14:46:40.166,0.1,-0.0,0.0,-4.89,-1.48,3.7
14:46:40.173,0.1,-0.01,0.01,-4.88,-1.21,3.2
14:46:40.181,0.11,-0.0,0.01,-5.15,-0.96,2.84
14:46:40.188,0.09,-0.01,0.03,-4.95,-0.89,2.66
14:46:40.195,0.1,-0.0,0.01,-4.76,-1.04,2.1
14:46:40.202,0.1,-0.0,0.01,-4.91,-0.74,1.85
14:46:40.210,0.09,-0.0,0.01,-4.73,-0.73,1.41
14:46:40.217,0.09,-0.0,0.02,-4.66,-0.72,3.26
14:46:40.224,0.07,-0.01,0.01,-4.73,-0.6,0.94
14:46:40.231,0.07,0.0,-0.0,-4.81,-0.57,0.69
14:46:40.239,0.07,-0.0,0.0,-4.73,-0.35,0.66
14:46:40.246,0.07,-0.0,0.01,-4.66,-0.35,0.4
14:46:40.253,0.06,-0.0,0.0,-4.72,-0.13,0.26
14:46:40.260,0.06,-0.0,0.01,-4.5,-0.22,0.06
14:46:40.268,0.07,-0.0,0.01,-4.47,-0.06,-0.35
14:46:40.275,0.05,0.01,0.0,-4.69,0.13,-0.28
14:46:40.282,0.07,-0.01,0.01,-4.56,0.17,-0.64
14:46:40.289,0.07,0.0,0.01,-4.59,0.44,-0.76
14:46:40.297,0.06,-0.0,0.0,-4.56,0.2,-0.8
14:46:40.304,0.06,-0.0,-0.0,-4.51,0.58,-1.19
14:46:40.311,0.08,0.0,0.01,-4.33,0.62,-1.43
14:46:40.319,0.08,-0.0,-0.0,-4.37,0.78,-1.95
14:46:40.326,0.08,-0.01,0.01,-4.4,1.17,-2.22
14:46:40.333,0.09,-0.0,0.01,-4.32,0.85,-2.47
14:46:40.340,0.09,0.0,0.01,-4.21,1.15,-2.79
14:46:40.348,0.09,-0.01,0.02,-4.14,1.5,-3.29
14:46:40.355,0.1,-0.0,0.0,-4.15,1.73,-3.68
14:46:40.362,0.1,-0.0,0.01,-4.36,1.78,-3.87
14:46:40.369,0.1,-0.01,0.01,-4.11,1.88,-4.33
14:46:40.377,0.1,-0.01,0.01,-4.08,1.92,-4.79
14:46:40.384,0.09,-0.0,0.0,-3.97,2.28,-5.18
14:46:40.391,0.09,-0.0,0.01,-3.98,2.27,-5.65
14:46:40.399,0.09,-0.01,0.01,-3.99,2.52,-6.16
14:46:40.406,0.09,-0.01,-0.0,-3.79,2.53,-6.57
14:46:40.413,0.09,0.0,0.01,-3.88,2.75,-6.96
14:46:40.420,0.08,0.0,0.01,-3.67,3.0,-7.32
14:46:40.428,0.08,0.0,0.01,-3.71,2.99,-7.83
14:46:40.435,0.08,-0.01,0.01,-3.53,3.11,-8.13
14:46:40.442,0.08,-0.0,0.01,-3.54,3.67,-8.43
14:46:40.450,0.09,-0.0,0.01,-3.44,3.77,-9.05
14:46:40.458,0.09,-0.0,0.01,-3.4,3.94,-9.67
14:46:40.465,0.09,-0.0,0.01,-3.37,4.23,-9.83
14:46:40.472,0.07,-0.01,0.03,-3.49,4.34,-10.09
14:46:40.480,0.07,0.01,0.02,-3.4,4.64,-10.56
14:46:40.487,0.07,-0.0,0.02,-3.27,4.46,-10.9
14:46:40.494,0.04,0.01,0.0,-3.45,4.85,-10.9
14:46:40.501,0.03,0.01,0.0,-3.24,4.63,-11.23
14:46:40.509,0.03,-0.01,0.01,-3.28,4.65,-11.03
14:46:40.516,0.03,0.01,-0.0,-3.4,4.74,-11.35
14:46:40.524,0.07,0.01,-0.03,-3.38,4.96,-11.78
14:46:40.531,0.05,-0.01,0.01,-3.34,5.04,-12.02
14:46:40.538,0.06,-0.01,0.02,-3.28,5.12,-12.48
14:46:40.546,0.08,0.02,0.01,-3.08,5.45,-12.88
14:46:40.553,0.08,-0.01,0.01,-3.28,5.69,-13.32
14:46:40.560,0.07,-0.0,0.02,-3.05,5.81,-13.72
14:46:40.567,0.07,0.0,0.0,-3.25,5.8,-14.18
14:46:40.575,0.08,0.0,-0.0,-2.85,5.91,-14.75
14:46:40.582,0.07,-0.0,0.01,-3.02,6.19,-15.31
14:46:40.589,0.06,-0.01,0.01,-3.03,6.16,-15.65
14:46:40.596,0.05,-0.01,0.0,-2.81,5.96,-15.73
14:46:40.604,0.03,0.0,-0.01,-2.8,5.72,-15.71
14:46:40.611,0.02,0.01,-0.01,-3.21,5.58,-15.7
14:46:40.618,-0.02,-0.0,-0.02,-3.01,5.49,-15.38
14:46:40.626,-0.04,-0.0,-0.01,-2.89,5.45,-15.38
14:46:40.633,-0.06,-0.0,-0.01,-2.89,5.36,-14.88
14:46:40.640,-0.08,0.0,-0.02,-3.23,5.01,-14.03
14:46:40.647,-0.09,0.0,-0.03,-3.21,4.94,-13.87
14:46:40.655,-0.1,-0.01,-0.01,-3.31,4.8,-13.25
14:46:40.662,-0.11,0.0,-0.01,-3.35,4.66,-12.67
14:46:40.669,-0.11,-0.0,-0.0,-3.48,4.48,-12.35
14:46:40.676,-0.12,-0.0,0.0,-3.47,4.35,-11.89
14:46:40.684,-0.11,0.0,-0.02,-3.42,4.31,-11.59
14:46:40.691,-0.11,-0.0,-0.02,-3.56,4.09,-11.02
14:46:40.698,-0.11,0.0,-0.01,-3.48,3.81,-10.35
14:46:40.706,-0.1,-0.0,-0.01,-3.66,3.81,-9.64
14:46:40.713,-0.1,0.0,-0.01,-3.67,3.73,-9.28
14:46:40.720,-0.1,-0.0,-0.01,-3.59,3.59,-8.97
14:46:40.727,-0.09,0.0,-0.02,-3.76,3.63,-8.66
14:46:40.735,-0.08,0.01,-0.02,-3.83,3.76,-8.6
14:46:40.742,-0.06,0.0,-0.01,-3.79,3.7,-8.53
14:46:40.749,-0.04,-0.0,0.01,-3.89,3.61,-8.6
14:46:40.757,-0.05,0.0,-0.01,-2.01,3.51,-8.31
14:46:40.764,-0.04,-0.0,-0.0,-3.86,3.49,-6.5
14:46:40.771,-0.05,0.0,0.0,-3.77,3.52,-8.38
14:46:40.778,-0.06,0.0,-0.01,-3.78,3.26,-8.09
14:46:40.786,-0.06,0.0,0.01,-3.85,3.01,-8.06
14:46:40.793,-0.06,-0.0,-0.01,-3.83,3.16,-8.18
14:46:40.800,-0.07,-0.01,0.0,-1.96,3.28,-7.82
14:46:40.808,-0.08,0.01,-0.02,-3.78,2.88,-7.67
14:46:40.815,-0.09,-0.0,-0.01,-3.71,2.78,-7.48
14:46:40.822,-0.09,0.0,-0.0,-3.79,2.91,-7.4
14:46:40.829,-0.1,0.01,-0.02,-3.92,2.74,-7.12
14:46:40.837,-0.09,-0.0,-0.01,-4.07,2.81,-7.01
14:46:40.844,-0.1,0.0,-0.01,-4.02,2.71,-6.65
14:46:40.851,-0.12,-0.0,-0.02,-3.97,2.31,-6.15
14:46:40.859,-0.11,-0.01,-0.01,-3.9,0.2,-5.7
14:46:40.866,-0.11,0.01,-0.03,-4.11,2.1,-5.35
14:46:40.873,-0.11,-0.0,-0.01,-4.11,1.94,-5.15
14:46:40.880,-0.13,-0.0,-0.01,-4.13,1.91,-4.6
14:46:40.888,-0.12,0.01,-0.01,-4.08,0.22,-6.42
14:46:40.895,-0.11,0.0,-0.02,-4.02,2.0,-4.36
14:46:40.902,-0.1,0.0,-0.01,-4.26,1.85,-4.4
14:46:40.909,-0.09,0.0,-0.0,-4.23,1.96,-4.06
14:46:40.917,-0.09,-0.0,-0.01,-4.0,1.81,-3.92
14:46:40.924,-0.09,-0.0,-0.0,-4.25,1.66,-3.83
14:46:40.931,-0.1,-0.0,-0.01,-4.05,1.52,-3.64
14:46:40.939,-0.07,0.0,-0.02,-4.2,1.33,-3.35
14:46:40.946,-0.09,-0.0,-0.01,-4.21,1.24,-3.18
14:46:40.953,-0.09,-0.0,-0.01,-4.27,1.14,-2.92
14:46:40.960,-0.1,0.0,-0.01,-4.37,0.9,-2.57
14:46:40.968,-0.1,-0.0,-0.02,-4.08,0.87,-2.38
14:46:40.975,-0.12,0.01,-0.01,-4.38,0.7,-2.08
14:46:40.982,-0.11,0.0,-0.02,-4.35,0.46,-1.73
14:46:40.990,-0.11,-0.01,-0.01,-4.37,0.33,-1.38
14:46:40.997,-0.13,-0.01,-0.01,-4.48,0.3,-1.06
14:46:41.004,-0.12,0.0,0.0,-4.62,0.03,-0.67
14:46:41.011,-0.11,0.01,-0.01,-4.53,0.27,-0.37
14:46:41.019,-0.11,-0.0,-0.0,-4.66,0.02,-0.22
14:46:41.026,-0.12,-0.0,-0.01,-4.41,-0.16,0.27
14:46:41.033,-0.12,0.0,-0.02,-4.53,-0.09,0.4
14:46:41.041,-0.12,-0.0,-0.01,-4.63,-0.41,1.14
14:46:41.048,-0.12,0.0,-0.0,-4.69,-0.49,1.31
14:46:41.055,-0.13,-0.0,-0.01,-4.77,-0.76,1.8
14:46:41.062,-0.12,0.01,-0.01,-4.68,-0.87,2.2
14:46:41.070,-0.11,-0.01,-0.01,-4.76,-0.91,2.29
14:46:41.077,-0.1,-0.0,-0.01,-4.76,-1.01,2.67
14:46:41.084,-0.13,0.01,-0.01,-4.82,-1.06,3.11
14:46:41.091,-0.11,0.0,-0.01,-4.82,-1.21,3.09
14:46:41.099,-0.09,0.0,-0.01,-4.78,-1.44,3.42
14:46:41.106,-0.12,0.02,-0.01,-4.99,-1.2,3.74
14:46:41.113,-0.11,0.01,-0.01,-4.86,-1.48,3.87
14:46:41.121,-0.09,-0.0,-0.01,-4.95,-1.73,4.22
14:46:41.128,-0.08,0.01,-0.01,-4.98,-3.66,4.59
14:46:41.135,-0.09,-0.0,-0.01,-5.1,-1.88,4.53
14:46:41.142,-0.11,-0.0,0.01,-5.04,-2.04,4.9
14:46:41.150,-0.08,-0.0,-0.0,-4.98,-2.12,5.1
14:46:41.157,-0.08,-0.0,-0.02,-4.98,-2.19,3.47
14:46:41.164,-0.11,-0.0,-0.01,-5.18,-2.45,5.62
14:46:41.171,-0.11,0.01,-0.0,-5.2,-2.39,5.88
14:46:41.179,-0.09,0.0,-0.02,-5.11,-2.36,6.17
14:46:41.186,-0.12,0.01,-0.01,-5.22,-2.84,6.67
14:46:41.193,-0.11,-0.0,-0.01,-5.21,-3.0,6.93
14:46:41.200,-0.1,0.0,-0.01,-5.24,-3.15,7.31
14:46:41.208,-0.12,0.0,-0.0,-5.37,-3.26,7.7
14:46:41.215,-0.1,0.01,-0.02,-5.46,-3.29,8.03
14:46:41.222,-0.12,-0.01,-0.01,-5.23,-3.6,8.48
14:46:41.229,-0.11,-0.0,-0.01,-5.71,-3.83,8.95
14:46:41.237,-0.11,0.01,-0.01,-5.37,-5.64,9.37
14:46:41.244,-0.11,-0.0,-0.01,-5.34,-3.88,9.49
14:46:41.251,-0.1,0.0,-0.01,-5.34,-4.01,9.85
14:46:41.259,-0.07,-0.0,-0.01,-5.62,-3.93,9.9
14:46:41.266,-0.07,-0.0,-0.0,-5.69,-4.17,10.32
14:46:41.273,-0.08,-0.0,-0.01,-5.54,-4.01,10.4
14:46:41.280,-0.08,-0.0,-0.01,-5.47,-4.28,10.46
14:46:41.288,-0.06,-0.01,0.0,-5.45,-4.33,10.48
14:46:41.295,-0.05,0.01,-0.01,-5.64,-4.34,10.86
14:46:41.302,-0.06,0.0,-0.02,-5.64,-4.66,10.91
14:46:41.309,-0.06,-0.01,-0.01,-5.53,-4.55,11.06
14:46:41.317,-0.06,0.0,-0.0,-5.56,-4.56,11.27
14:46:41.324,-0.05,0.0,0.0,-5.53,-4.64,11.43
14:46:41.331,-0.05,-0.01,0.0,-5.6,-4.78,11.56
14:46:41.339,-0.05,-0.0,0.0,-5.47,-4.71,11.69
14:46:41.346,-0.05,-0.0,-0.02,-5.77,-4.9,11.78
14:46:41.353,-0.05,-0.0,-0.0,-5.58,-4.71,12.11
14:46:41.360,-0.06,-0.01,-0.02,-5.66,-4.96,12.33
14:46:41.368,-0.04,-0.0,0.0,-5.66,-4.87,12.48
14:46:41.375,-0.04,0.0,-0.0,-5.85,-4.99,12.23
14:46:41.382,-0.04,-0.01,0.0,-7.81,-5.01,12.56
14:46:41.390,-0.03,-0.0,-0.01,-5.65,-4.97,12.49
14:46:41.397,-0.02,0.0,0.01,-5.75,-5.09,12.58
14:46:41.404,-0.02,0.0,-0.01,-5.87,-5.18,12.85
14:46:41.411,-0.02,-0.01,-0.0,-5.9,-4.9,12.77
14:46:41.419,-0.02,0.0,-0.01,-5.8,-5.21,12.85
14:46:41.426,-0.02,0.0,0.0,-6.0,-5.1,12.86
14:46:41.433,-0.01,0.0,-0.01,-5.76,-5.12,12.74
14:46:41.440,-0.01,0.0,-0.01,-6.01,-5.12,12.94
14:46:41.448,-0.0,-0.0,0.01,-3.95,-5.06,12.55
14:46:41.455,0.0,0.01,-0.01,-5.88,-4.9,12.4
14:46:41.463,0.01,-0.0,0.01,-5.68,-5.12,12.54
14:46:41.470,0.0,0.0,0.01,-5.74,-4.98,12.61
14:46:41.477,0.01,0.0,0.0,-7.82,-4.97,12.56
14:46:41.485,0.01,-0.0,0.01,-5.79,-5.11,12.55
14:46:41.492,0.02,-0.0,-0.0,-5.84,-5.09,12.45
14:46:41.499,-0.01,0.0,0.01,-5.68,-5.13,12.35
14:46:41.506,0.01,0.0,0.01,-5.68,-4.93,12.41
14:46:41.514,0.01,-0.0,0.01,-7.82,-5.09,12.51
14:46:41.521,0.01,0.02,-0.01,-5.63,-5.02,12.38
14:46:41.528,0.02,0.02,-0.02,-5.9,-4.84,12.11
14:46:41.536,0.02,0.0,-0.01,-5.97,-4.87,12.3
14:46:41.543,0.03,-0.01,0.0,-7.77,-4.97,11.89
14:46:41.550,0.05,0.01,0.0,-5.83,-4.6,11.59
14:46:41.558,0.06,0.02,0.0,-5.63,-4.82,11.17
14:46:41.565,0.06,-0.0,0.01,-5.6,-4.23,10.94
14:46:41.572,0.06,0.01,-0.01,-5.57,-4.52,10.47
14:46:41.579,0.06,0.0,-0.01,-5.75,-4.28,10.45
14:46:41.587,0.06,0.0,0.01,-5.68,-4.05,10.06
14:46:41.594,0.06,-0.01,0.01,-5.58,-4.19,10.01
14:46:41.601,0.04,0.01,0.02,-5.68,-3.93,9.81
14:46:41.609,0.04,0.01,-0.0,-5.69,-4.08,10.17
14:46:41.616,0.05,0.02,0.0,-5.73,-3.9,10.07
14:46:41.623,0.05,0.01,0.01,-5.77,-4.12,10.1
14:46:41.630,0.03,-0.02,0.01,-5.61,-3.89,9.95
14:46:41.638,0.06,-0.01,0.0,-5.81,-3.66,9.77
14:46:41.645,0.04,0.0,0.01,-5.59,-3.73,9.73
14:46:41.652,0.04,0.01,-0.0,-5.6,-1.79,9.68
14:46:41.660,0.06,-0.0,-0.01,-5.63,-3.83,9.6
14:46:41.667,0.05,0.01,0.01,-5.6,-3.83,9.46
14:46:41.674,0.07,0.0,0.0,-5.76,-3.6,9.29
14:46:41.681,0.05,0.0,-0.0,-5.65,-3.38,9.07
14:46:41.689,0.06,-0.0,0.0,-5.6,-3.38,9.17
14:46:41.696,0.08,0.01,-0.01,-5.45,-3.4,8.85
14:46:41.703,0.07,-0.01,-0.0,-5.44,-3.3,8.46
14:46:41.711,0.07,-0.02,0.01,-5.46,-3.19,8.52
14:46:41.718,0.07,-0.02,0.01,-5.5,-3.19,8.26
14:46:41.725,0.1,0.0,-0.01,-5.41,-3.14,8.09
14:46:41.732,0.07,-0.0,0.02,-5.51,-3.2,8.01
14:46:41.740,0.1,0.0,0.0,-5.4,-3.14,7.72
14:46:41.747,0.07,-0.0,0.0,-5.53,-2.99,7.61
14:46:41.754,0.09,-0.0,0.0,-5.23,-2.99,7.43
14:46:41.762,0.09,-0.0,0.01,-5.37,-2.9,7.22
14:46:41.769,0.07,-0.0,0.01,-5.3,-2.83,6.97
14:46:41.776,0.09,-0.01,0.01,-5.31,-2.63,6.53
14:46:41.784,0.08,0.0,0.0,-5.28,-2.69,6.3
14:46:41.791,0.09,-0.0,0.02,-5.12,-2.5,6.16
14:46:41.798,0.11,-0.0,0.01,-5.07,-2.32,5.77
14:46:41.805,0.11,-0.0,0.0,-5.24,-2.3,5.57
14:46:41.813,0.1,-0.0,0.01,-5.15,-2.12,5.32
14:46:41.820,0.1,-0.01,0.01,-5.25,-1.89,7.17
14:46:41.827,0.11,-0.0,0.03,-5.29,0.14,4.62
14:46:41.835,0.12,-0.01,0.01,-4.96,-1.69,4.56
14:46:41.842,0.11,-0.0,0.02,-4.89,-1.46,4.08
14:46:41.849,0.11,-0.01,0.02,-4.85,-1.18,3.75
14:46:41.856,0.13,-0.01,0.0,-4.89,-0.96,2.78
14:46:41.864,0.12,-0.0,0.03,-4.91,-0.7,2.56
14:46:41.871,0.14,-0.0,0.02,-4.79,-0.31,2.2
14:46:41.878,0.13,-0.0,0.01,-4.6,-0.27,1.56
14:46:41.886,0.14,-0.02,0.01,-4.78,-0.21,1.29
14:46:41.893,0.13,-0.0,0.01,-4.62,0.07,0.7
14:46:41.900,0.14,-0.01,0.01,-4.69,0.36,0.15
14:46:41.907,0.15,-0.01,0.01,-4.44,0.61,-0.44
14:46:41.915,0.15,-0.0,0.02,-4.34,0.78,-0.88
14:46:41.922,0.13,-0.01,0.01,-4.44,0.88,-1.54
14:46:41.929,0.14,-0.02,0.02,-4.33,1.07,-2.07
14:46:41.936,0.15,-0.01,0.01,-4.27,1.29,-2.73
14:46:41.944,0.14,-0.02,0.01,-4.25,1.39,-3.22
14:46:41.951,0.14,-0.0,0.02,-4.29,1.59,-3.8
14:46:41.958,0.15,-0.01,0.01,-4.24,2.07,-4.4
14:46:41.966,0.14,-0.0,0.02,-4.12,2.12,-4.74
14:46:41.973,0.14,0.0,0.02,-1.96,2.21,-5.35
14:46:41.980,0.15,-0.01,0.01,-5.85,2.58,-6.02
14:46:41.987,0.15,0.01,0.02,-3.78,2.83,-6.53
14:46:41.995,0.14,0.01,0.01,-3.66,2.71,-6.94
14:46:42.002,0.14,-0.01,0.02,-3.59,3.0,-7.47
14:46:42.009,0.13,-0.02,0.03,-3.65,3.26,-8.17
14:46:42.017,0.14,-0.01,0.01,-3.6,3.58,-8.62
14:46:42.024,0.13,-0.01,0.01,-3.64,3.59,-9.17
14:46:42.031,0.13,-0.0,-0.0,-3.44,3.79,-9.67
14:46:42.038,0.13,-0.01,0.01,-3.31,4.21,-10.06
14:46:42.046,0.12,-0.01,0.01,-3.35,4.23,-10.51
14:46:42.053,0.11,0.0,0.01,-3.32,4.36,-10.86
14:46:42.060,0.11,-0.01,0.02,-3.09,4.5,-11.27
14:46:42.068,0.11,-0.01,0.01,-3.02,4.85,-11.74
14:46:42.075,0.1,-0.0,0.0,-3.01,4.62,-12.11
14:46:42.082,0.1,-0.01,0.01,-3.22,4.88,-12.38
14:46:42.089,0.09,-0.0,0.01,-3.18,4.91,-12.69
14:46:42.097,0.1,-0.02,0.01,-3.24,5.13,-13.02
14:46:42.104,0.08,-0.0,0.0,-2.94,5.14,-13.11
14:46:42.111,0.08,0.0,0.0,-3.11,5.28,-13.29
14:46:42.118,0.07,-0.0,0.01,-3.02,5.13,-13.31
14:46:42.126,0.06,0.0,0.01,-2.9,5.17,-13.79
14:46:42.133,0.05,-0.0,0.01,-3.15,5.32,-13.84
14:46:42.140,0.05,0.01,0.01,-2.92,5.2,-13.84
14:46:42.147,0.02,0.01,0.0,-3.18,5.4,-13.86
14:46:42.155,-0.01,0.04,0.02,-3.15,5.48,-13.67
14:46:42.162,-0.03,0.0,0.01,-3.05,5.43,-13.32
14:46:42.169,-0.04,0.02,-0.01,-2.97,5.24,-12.94
14:46:42.177,-0.05,0.01,-0.03,-3.21,5.14,-12.67
14:46:42.184,-0.04,-0.01,0.0,-3.1,4.96,-12.14
14:46:42.191,-0.03,0.0,-0.01,-3.08,4.36,-11.74
14:46:42.199,-0.03,0.02,-0.0,-3.27,4.41,-11.39
14:46:42.206,-0.03,0.0,-0.0,-3.46,4.44,-10.93
14:46:42.213,-0.03,-0.0,-0.01,-3.4,4.11,-10.89
14:46:42.220,0.0,0.01,-0.02,-3.27,4.42,-10.63
14:46:42.228,-0.01,-0.01,-0.02,-3.47,3.92,-10.44
14:46:42.235,-0.0,-0.0,0.0,-3.55,3.98,-12.31
14:46:42.242,-0.0,0.0,0.01,-3.47,4.19,-10.68
14:46:42.249,0.01,0.01,0.01,-3.54,2.2,-10.51
14:46:42.257,0.01,0.0,0.01,-3.4,4.22,-10.65
14:46:42.264,0.02,0.0,0.01,-3.36,4.2,-10.58
14:46:42.271,0.02,0.0,-0.01,-3.47,4.28,-10.93
14:46:42.279,0.01,0.0,-0.01,-3.37,4.13,-10.78
14:46:42.286,0.02,-0.0,0.0,-3.32,4.26,-10.97
14:46:42.293,0.02,0.0,0.0,-3.45,4.23,-11.2
14:46:42.300,0.02,-0.0,-0.01,-3.55,4.37,-11.23
14:46:42.308,0.02,0.0,-0.0,-3.39,4.49,-11.47
14:46:42.315,0.02,0.0,-0.0,-3.5,4.65,-11.73
14:46:42.322,0.02,-0.0,-0.0,-3.53,4.63,-11.68
14:46:42.330,0.01,0.0,-0.0,-3.37,4.62,-12.02
14:46:42.337,0.0,0.01,0.0,-3.5,4.61,-11.93
14:46:42.344,0.0,-0.0,-0.0,-3.63,4.85,-11.96
14:46:42.351,-0.01,-0.0,-0.0,-3.26,4.73,-12.15
14:46:42.359,-0.01,-0.0,0.01,-3.41,4.78,-12.44
14:46:42.366,-0.02,0.0,-0.0,-3.35,4.91,-12.47
14:46:42.373,-0.02,-0.0,-0.01,-3.41,5.01,-12.15
14:46:42.380,-0.02,-0.0,-0.0,-3.21,5.01,-12.31
14:46:42.388,-0.05,0.0,-0.0,-3.37,4.86,-12.25
14:46:42.395,-0.04,0.0,-0.01,-3.4,4.96,-12.04
14:46:42.402,-0.04,0.0,0.0,-3.44,4.59,-12.06
14:46:42.409,-0.03,0.0,0.01,-3.56,4.66,-11.97
14:46:42.417,-0.05,0.01,-0.01,-3.44,4.81,-11.97
14:46:42.424,-0.03,0.0,0.0,-3.27,5.01,-11.89
14:46:42.431,-0.04,0.0,-0.01,-3.59,5.12,-11.73
14:46:42.439,-0.04,0.0,-0.01,-3.31,4.98,-11.7
14:46:42.446,-0.04,-0.0,-0.01,-3.44,4.82,-11.74
14:46:42.453,-0.03,-0.0,0.01,-3.5,5.01,-11.9
14:46:42.461,-0.04,-0.0,-0.01,-3.22,4.95,-11.86
14:46:42.468,-0.04,0.01,-0.01,-3.45,4.95,-11.63
14:46:42.476,-0.05,-0.01,-0.02,-3.38,4.97,-11.71
14:46:42.483,-0.04,-0.0,-0.0,-3.27,4.72,-11.81
14:46:42.490,-0.05,-0.0,-0.0,-3.53,4.76,-11.9
14:46:42.498,-0.05,0.01,-0.03,-3.37,4.55,-11.88
14:46:42.505,-0.05,0.01,-0.01,-3.53,4.62,-12.0
14:46:42.512,-0.04,0.0,-0.01,-3.62,4.73,-11.75
14:46:42.520,-0.06,0.02,-0.01,-3.51,4.6,-11.67
14:46:42.527,-0.07,-0.0,-0.01,-3.51,4.53,-11.68
14:46:42.534,-0.07,0.0,-0.01,-3.58,4.58,-11.5
14:46:42.541,-0.08,0.0,-0.01,-3.51,4.43,-11.18
14:46:42.549,-0.09,0.0,-0.01,-3.6,4.41,-11.02
14:46:42.556,-0.09,0.0,-0.01,-3.53,4.23,-10.93
14:46:42.563,-0.1,-0.01,-0.01,-3.65,4.23,-10.64
14:46:42.571,-0.11,0.0,-0.0,-3.56,4.01,-10.43
14:46:42.578,-0.09,-0.01,-0.01,-3.6,3.92,-10.17
14:46:42.585,-0.1,-0.0,-0.01,-3.63,3.85,-9.99
14:46:42.592,-0.11,0.01,-0.01,-3.61,3.83,-9.57
14:46:42.600,-0.11,0.0,-0.0,-3.85,3.57,-9.41
14:46:42.607,-0.11,0.01,-0.01,-3.73,3.78,-9.29
14:46:42.614,-0.1,-0.0,-0.01,-3.66,3.47,-8.96
14:46:42.622,-0.15,0.0,-0.01,-3.83,3.33,-8.54
14:46:42.629,-0.12,-0.0,-0.01,-3.82,3.14,-8.46
14:46:42.636,-0.12,0.0,-0.01,-3.85,3.07,-8.02
14:46:42.643,-0.12,-0.01,-0.02,-4.12,2.88,-7.6
14:46:42.651,-0.13,0.0,-0.01,-3.88,2.7,-7.24
14:46:42.658,-0.13,-0.01,-0.02,-4.02,2.27,-6.78
14:46:42.665,-0.14,-0.0,-0.01,-4.13,2.25,-6.59
14:46:42.673,-0.14,-0.0,-0.02,-4.03,2.01,-5.99
14:46:42.680,-0.14,0.0,-0.01,-3.97,1.81,-5.52
14:46:42.687,-0.15,-0.0,-0.01,-4.04,1.79,-5.19
14:46:42.694,-0.16,-0.0,-0.01,-4.02,1.59,-4.73
14:46:42.702,-0.18,-0.01,-0.01,-4.24,1.29,-4.18
14:46:42.709,-0.16,-0.0,-0.01,-4.18,1.3,-3.62
14:46:42.716,-0.16,-0.01,-0.02,-4.21,1.08,-3.31
14:46:42.723,-0.17,0.0,-0.01,-4.37,0.85,-2.84
14:46:42.731,-0.17,-0.0,-0.0,-4.44,0.93,-2.31
14:46:42.738,-0.17,0.01,-0.02,-4.44,0.69,-1.82
14:46:42.745,-0.16,0.0,-0.01,-4.34,2.14,-1.1
14:46:42.752,-0.16,0.0,-0.03,-4.45,0.36,-2.57
14:46:42.760,-0.16,0.0,-0.02,-4.63,0.01,-0.32
14:46:42.767,-0.16,0.01,-0.01,-4.5,-0.06,0.14
14:46:42.774,-0.16,0.0,-0.01,-4.69,-0.28,0.53
14:46:42.782,-0.16,-0.0,-0.01,-4.69,-0.38,1.11
14:46:42.789,-0.16,-0.0,-0.03,-4.79,-0.8,1.56
14:46:42.796,-0.15,-0.0,-0.02,-4.66,-0.79,2.04
14:46:42.803,-0.15,-0.01,-0.02,-4.73,-1.06,2.33
14:46:42.811,-0.15,0.0,-0.02,-4.98,-1.22,2.96
14:46:42.818,-0.15,0.0,-0.02,-5.1,-1.39,1.36
14:46:42.825,-0.14,0.0,-0.02,-4.88,-1.61,3.66
14:46:42.832,-0.15,-0.0,-0.01,-4.98,0.2,3.96
14:46:42.840,-0.15,0.0,0.01,-4.95,0.17,4.53
14:46:42.847,-0.14,-0.0,-0.02,-5.11,-2.03,4.96
14:46:42.854,-0.14,0.0,-0.01,-5.11,-2.15,5.01
14:46:42.862,-0.14,-0.0,-0.01,-5.09,-2.0,5.43
14:46:42.869,-0.14,0.0,-0.02,-5.16,-2.24,5.88
14:46:42.876,-0.13,-0.0,-0.01,-4.95,-2.31,6.2
14:46:42.883,-0.14,0.0,-0.02,-5.03,-2.66,6.48
14:46:42.891,-0.14,0.0,-0.01,-5.12,-2.65,6.76
14:46:42.898,-0.13,-0.0,-0.01,-5.05,-2.77,7.27
14:46:42.905,-0.12,-0.0,-0.02,-5.06,-2.94,7.28
14:46:42.912,-0.12,0.0,-0.01,-5.31,-2.96,7.56
14:46:42.920,-0.11,0.0,-0.02,-5.19,-2.99,7.65
14:46:42.927,-0.11,0.0,-0.02,-5.17,-3.06,7.97
14:46:42.934,-0.11,0.0,-0.0,-5.21,-3.4,8.24
14:46:42.941,-0.11,-0.0,-0.01,-5.25,-3.37,8.59
14:46:42.949,-0.1,0.0,-0.01,-5.37,-3.57,8.85
14:46:42.956,-0.1,-0.0,-0.02,-5.41,-3.7,8.88
14:46:42.963,-0.1,0.01,-0.01,-5.5,-3.83,9.22
14:46:42.970,-0.1,0.0,-0.02,-5.53,-3.78,9.57
14:46:42.978,-0.1,0.01,-0.02,-5.44,-4.0,9.75
14:46:42.985,-0.1,0.0,-0.01,-5.63,-4.12,9.93
14:46:42.992,-0.09,-0.0,-0.01,-5.51,-3.96,10.05
14:46:43.000,-0.1,0.0,-0.01,-5.45,-4.14,10.27
14:46:43.007,-0.09,-0.0,-0.01,-5.58,-4.19,10.28
14:46:43.014,-0.09,-0.0,-0.01,-5.45,-4.35,10.59
14:46:43.021,-0.09,0.0,-0.0,-5.51,-4.39,10.69
14:46:43.029,-0.09,-0.0,-0.02,-5.41,-4.41,11.03
14:46:43.036,-0.09,-0.0,-0.01,-5.47,-4.59,11.15
14:46:43.043,-0.09,-0.0,-0.0,-5.6,-4.69,11.45
14:46:43.050,-0.09,0.01,-0.01,-5.5,-4.7,11.76
14:46:43.058,-0.08,0.0,-0.01,-5.6,-4.88,11.94
14:46:43.065,-0.07,0.0,-0.01,-5.6,-4.98,12.18
14:46:43.073,-0.07,0.0,-0.01,-5.72,-4.99,12.29
14:46:43.080,-0.06,0.0,-0.01,-5.68,-4.83,12.17
14:46:43.087,-0.06,0.0,-0.02,-5.69,-4.96,12.58
14:46:43.094,-0.05,0.0,-0.01,-5.77,-4.93,12.4
14:46:43.102,-0.05,0.0,-0.0,-5.83,-4.8,12.72
14:46:43.109,-0.05,-0.0,-0.01,-5.74,-5.09,12.32
14:46:43.116,-0.05,0.0,-0.0,-5.73,-5.02,12.36
14:46:43.124,-0.05,-0.0,0.01,-5.64,-5.19,12.66
14:46:43.131,-0.05,0.0,-0.01,-5.73,-5.09,12.64
14:46:43.138,-0.04,0.0,-0.0,-5.79,-5.04,12.5
14:46:43.145,-0.04,0.0,-0.01,-5.84,-5.09,12.41
14:46:43.153,-0.03,-0.0,-0.0,-5.74,-4.8,12.36
14:46:43.160,-0.04,0.0,-0.0,-5.73,-5.22,12.59
14:46:43.167,-0.03,-0.01,0.0,-5.97,-5.13,12.61
14:46:43.174,-0.03,0.0,-0.01,-5.83,-4.88,12.75
14:46:43.182,-0.03,-0.0,-0.0,-5.9,-4.86,12.7
14:46:43.189,-0.03,-0.0,0.0,-5.77,-4.93,12.64
14:46:43.196,-0.02,0.0,-0.02,-5.71,-5.12,12.98
14:46:43.203,-0.02,0.0,-0.0,-5.82,-5.0,12.71
14:46:43.211,-0.01,0.0,-0.0,-7.8,-4.99,12.58
14:46:43.218,-0.01,0.0,-0.01,-5.83,-5.04,12.82
14:46:43.225,-0.02,0.0,-0.01,-5.75,-5.01,12.88
14:46:43.233,-0.02,0.0,-0.01,-5.83,-5.22,12.82
14:46:43.240,-0.01,-0.0,-0.01,-5.89,-5.21,12.88
14:46:43.247,-0.02,0.01,0.0,-5.92,-5.25,12.93
14:46:43.254,-0.01,-0.0,0.01,-5.77,-5.35,12.89
14:46:43.262,-0.01,0.01,0.01,-7.78,-5.39,13.2
14:46:43.269,-0.02,-0.01,0.0,-5.82,-5.4,11.17
14:46:43.276,-0.01,0.0,-0.0,-3.96,-5.51,13.22
14:46:43.283,-0.02,0.0,0.01,-5.9,-5.45,13.39
14:46:43.291,-0.02,0.01,-0.0,-5.92,-5.5,13.58
14:46:43.298,0.0,-0.0,-0.0,-5.95,-5.51,13.65
14:46:43.305,-0.0,0.0,0.01,-5.98,-5.84,13.67
14:46:43.312,-0.0,-0.0,0.01,-5.8,-5.71,13.9
14:46:43.320,-0.0,0.0,-0.0,-5.69,-5.8,13.79
14:46:43.327,0.04,0.03,-0.03,-6.03,-5.77,13.68
14:46:43.334,0.02,-0.01,-0.01,-6.08,-5.64,13.57
14:46:43.341,0.05,-0.02,0.01,-6.02,-5.45,13.38
14:46:43.349,0.05,0.01,0.01,-5.89,-5.48,13.14
14:46:43.356,0.06,-0.0,0.02,-5.75,-5.36,12.61
14:46:43.363,0.07,0.0,0.01,-5.73,-5.0,12.11
14:46:43.371,0.08,-0.0,-0.01,-6.02,-4.96,11.74
14:46:43.378,0.08,-0.01,-0.0,-5.74,-4.89,11.47
14:46:43.385,0.06,-0.02,0.01,-5.58,-4.66,11.23
14:46:43.392,0.06,-0.0,0.01,-5.76,-4.53,11.07
14:46:43.400,0.05,-0.0,0.01,-5.69,-4.62,10.73
14:46:43.407,0.04,0.02,0.01,-5.76,-4.67,11.04
14:46:43.414,0.03,0.02,-0.01,-5.75,-4.53,11.19
14:46:43.421,0.04,0.01,0.01,-6.02,-4.44,11.04
14:46:43.429,0.05,-0.01,0.02,-7.82,-4.54,10.98
14:46:43.436,0.04,0.0,0.01,-5.82,-4.49,10.85
14:46:43.443,0.03,0.0,0.01,-5.63,-4.73,11.14
14:46:43.450,0.03,-0.0,-0.0,-5.84,-4.43,11.2
14:46:43.458,0.04,-0.01,0.01,-5.93,-4.59,11.36
14:46:43.465,0.03,-0.01,0.01,-5.73,-4.57,11.62
14:46:43.473,0.02,-0.0,0.01,-5.81,-4.72,11.61
14:46:43.480,0.04,0.0,-0.0,-5.72,-4.69,11.54
14:46:43.487,0.04,-0.0,0.01,-3.95,-4.6,11.46
14:46:43.495,0.04,-0.01,0.01,-5.98,-4.6,11.46
14:46:43.502,0.05,-0.0,0.01,-5.96,-4.73,11.48
14:46:43.509,0.07,-0.0,0.01,-6.01,-4.51,11.41
14:46:43.516,0.08,-0.01,0.01,-5.94,-4.24,13.03
14:46:43.524,0.09,-0.0,0.0,-5.92,-4.25,10.82
14:46:43.531,0.1,-0.01,-0.0,-5.87,-4.07,10.56
14:46:43.538,0.11,-0.0,0.01,-5.84,-4.1,10.24
14:46:43.546,0.1,0.01,0.01,-5.69,-4.03,10.2
14:46:43.553,0.11,-0.0,0.03,-5.7,-3.99,9.5
14:46:43.560,0.11,-0.01,0.01,-5.52,-3.8,9.4
14:46:43.567,0.11,-0.01,0.01,-5.56,-3.67,9.0
14:46:43.575,0.12,-0.01,0.02,-5.59,-3.42,8.65
14:46:43.582,0.11,-0.01,0.01,-5.44,-3.35,8.18
14:46:43.589,0.11,0.01,0.01,-5.35,-3.08,8.06
14:46:43.597,0.11,0.0,0.02,-5.57,-3.12,7.74
14:46:43.604,0.12,-0.01,0.01,-5.51,-2.96,7.3
14:46:43.611,0.11,-0.0,0.02,-5.59,-2.92,7.03
14:46:43.618,0.11,-0.01,0.01,-5.25,-2.66,6.83
14:46:43.626,0.12,-0.0,0.01,-5.24,-2.41,6.33
14:46:43.633,0.13,-0.0,0.02,-5.4,-2.39,6.23
14:46:43.640,0.11,-0.0,0.0,-5.17,-2.12,5.73
14:46:43.647,0.12,-0.0,0.0,-5.21,-1.97,5.17
14:46:43.655,0.12,-0.01,0.02,-5.12,-1.62,4.88
14:46:43.662,0.13,-0.0,0.01,-5.02,-1.35,4.56
14:46:43.669,0.13,0.01,-0.01,-5.26,-1.15,4.51
14:46:43.676,0.11,-0.04,0.01,-5.2,-1.19,3.93
14:46:43.684,0.16,-0.02,0.05,-5.09,-1.02,5.2
14:46:43.691,0.15,0.0,0.01,-5.1,-1.12,2.82
14:46:43.698,0.14,-0.01,0.01,-4.83,-0.71,2.57
14:46:43.706,0.14,-0.01,0.01,-4.82,-0.54,2.1
14:46:43.713,0.15,-0.0,0.01,-4.85,-0.48,1.75
14:46:43.720,0.14,-0.0,0.0,-4.75,-0.21,1.27
14:46:43.727,0.14,-0.01,0.02,-4.6,-0.04,1.08
14:46:43.735,0.14,-0.0,0.02,-4.76,-0.31,0.56
14:46:43.742,0.14,-0.01,0.01,-4.63,0.04,0.19
14:46:43.749,0.14,-0.01,0.01,-4.53,0.15,-0.22
14:46:43.756,0.14,-0.01,0.02,-4.41,0.3,-0.61
14:46:43.764,0.14,0.01,0.02,-4.47,0.5,-0.93
14:46:43.771,0.15,-0.01,0.01,-4.37,0.72,-1.56
14:46:43.778,0.14,-0.01,0.03,-4.3,0.98,-2.02
14:46:43.786,0.14,-0.02,0.02,-4.38,1.13,-2.6
14:46:43.793,0.14,-0.01,0.02,-4.26,1.34,-3.04
14:46:43.800,0.14,-0.02,0.02,-4.18,1.56,-3.52
14:46:43.807,0.14,-0.01,0.02,-4.12,1.58,-3.89
14:46:43.815,0.14,-0.01,0.01,-3.92,1.76,-4.32
14:46:43.822,0.15,-0.0,0.01,-3.93,1.91,-4.63
14:46:43.829,0.13,-0.0,0.01,-4.07,2.01,-4.89
14:46:43.837,0.13,-0.01,0.02,-3.91,1.98,-5.33
14:46:43.844,0.12,-0.0,0.01,-1.98,2.33,-5.67
14:46:43.851,0.11,-0.01,0.0,-4.01,2.09,-5.82
14:46:43.858,0.11,-0.0,0.01,-3.69,2.35,-6.02
14:46:43.866,0.11,-0.0,-0.0,-3.94,2.53,-6.2
14:46:43.873,0.1,-0.01,0.01,-3.85,2.61,-6.67
14:46:43.880,0.1,-0.0,0.02,-5.85,2.88,-6.78
14:46:43.887,0.11,0.0,0.03,-3.65,3.03,-7.12
14:46:43.895,0.1,-0.0,0.01,-3.74,2.97,-7.22
14:46:43.902,0.1,0.01,0.01,-3.82,2.96,-7.4
14:46:43.909,0.1,-0.0,0.02,-3.47,3.1,-7.87
14:46:43.917,0.1,-0.0,0.01,-3.67,3.33,-7.89
14:46:43.924,0.1,0.0,0.01,-3.6,3.31,-8.17
14:46:43.931,0.09,0.01,-0.0,-3.74,3.32,-8.26
14:46:43.938,0.09,0.0,0.01,-3.46,3.52,-8.66
14:46:43.946,0.09,-0.0,0.01,-3.46,3.38,-8.59
14:46:43.953,0.09,-0.0,0.01,-3.44,3.63,-9.06
14:46:43.960,0.09,-0.0,0.01,-3.62,3.34,-9.24
14:46:43.967,0.09,-0.01,0.01,-3.39,3.72,-9.44
14:46:43.975,0.08,-0.0,0.0,-3.55,3.65,-9.43
14:46:43.982,0.08,0.0,0.01,-3.44,3.83,-9.64
14:46:43.989,0.07,0.01,-0.0,-3.76,3.83,-9.64
14:46:43.997,0.07,-0.0,-0.0,-3.4,3.84,-9.91
14:46:44.004,0.07,0.0,0.01,-3.32,3.8,-10.06
14:46:44.011,0.06,-0.0,-0.01,-3.5,3.9,-10.13
14:46:44.018,0.05,-0.0,0.01,-3.55,3.99,-9.99
14:46:44.026,0.04,0.0,0.01,-3.3,2.2,-10.03
14:46:44.033,0.05,-0.01,0.0,-3.26,4.12,-10.3
14:46:44.040,0.05,-0.0,0.0,-3.18,4.15,-10.41
14:46:44.047,0.06,-0.0,0.01,-3.17,2.21,-8.54
14:46:44.055,0.07,-0.0,0.0,-3.44,4.36,-10.67
14:46:44.062,0.06,0.01,0.01,-3.27,4.31,-10.67
14:46:44.069,0.06,-0.0,0.01,-3.31,4.19,-10.59
14:46:44.077,0.06,0.0,-0.0,-3.24,4.36,-10.94
14:46:44.084,0.06,0.0,0.0,-3.23,4.53,-11.07
14:46:44.091,0.06,-0.0,-0.0,-3.41,4.49,-11.46
14:46:44.098,0.05,0.01,0.02,-3.25,4.62,-11.31
14:46:44.106,0.03,0.01,0.0,-3.38,4.46,-11.42
14:46:44.113,0.02,0.01,0.02,-3.24,4.56,-11.31
14:46:44.120,0.02,0.0,0.01,-3.38,4.74,-11.12
14:46:44.127,-0.02,0.01,-0.02,-3.45,4.58,-10.89
14:46:44.135,-0.01,0.01,0.0,-3.26,4.56,-10.56
14:46:44.142,-0.02,0.04,-0.03,-3.48,4.35,-8.54
14:46:44.149,-0.01,-0.0,-0.01,-3.56,4.2,-9.97
14:46:44.157,-0.02,0.0,-0.0,-3.52,5.98,-9.79
14:46:44.164,-0.01,0.0,0.01,-3.47,3.94,-9.64
14:46:44.171,-0.01,0.01,-0.0,-3.6,3.88,-9.39
14:46:44.178,0.0,0.0,0.0,-3.49,3.74,-9.47
14:46:44.186,0.01,0.0,-0.0,-3.55,3.95,-9.47
14:46:44.193,0.01,0.0,-0.0,-3.47,3.82,-9.51
14:46:44.200,0.02,0.01,-0.01,-3.47,3.91,-9.57
14:46:44.207,0.03,0.0,-0.01,-3.64,4.06,-9.7
14:46:44.215,0.03,-0.01,0.0,-3.4,4.15,-9.8
14:46:44.222,0.03,0.01,0.0,-3.53,4.04,-9.77
14:46:44.229,0.03,0.0,0.01,-3.47,2.16,-10.2
14:46:44.236,0.03,0.0,0.0,-3.43,4.28,-10.49
14:46:44.244,0.03,-0.0,0.01,-3.48,4.01,-10.49
14:46:44.251,0.03,0.0,-0.02,-3.42,4.33,-10.73
14:46:44.258,0.02,-0.0,0.01,-3.26,4.3,-10.67
14:46:44.266,0.01,0.0,-0.0,-3.54,4.31,-10.85
14:46:44.273,0.01,-0.0,0.01,-3.46,4.38,-11.13
14:46:44.280,0.01,-0.0,0.0,-3.35,4.52,-11.06
14:46:44.287,0.01,0.01,0.0,-3.24,4.47,-11.22
14:46:44.295,0.01,-0.0,-0.01,-3.49,4.58,-11.27
14:46:44.302,0.01,-0.0,-0.0,-3.51,4.55,-11.43
14:46:44.309,-0.01,0.0,-0.01,-3.5,4.62,-11.31
14:46:44.316,-0.0,0.0,-0.02,-3.4,4.69,-11.44
14:46:44.324,-0.01,0.01,0.0,-3.27,4.69,-11.84
14:46:44.331,-0.01,-0.01,0.0,-3.41,4.77,-11.69
14:46:44.338,-0.01,0.0,-0.02,-3.42,4.76,-11.74
14:46:44.346,-0.01,0.0,-0.0,-3.28,4.75,-11.8
14:46:44.353,-0.02,-0.0,-0.01,-3.4,4.87,-11.91
14:46:44.360,-0.01,-0.0,0.0,-3.37,4.87,-12.09
14:46:44.368,-0.01,-0.0,-0.01,-3.47,4.83,-11.75
14:46:44.375,-0.02,0.0,0.0,-3.31,4.85,-12.02
14:46:44.382,-0.02,-0.0,-0.0,-3.2,4.72,-11.92
14:46:44.390,-0.02,-0.0,0.0,-3.18,4.85,-11.93
14:46:44.397,-0.03,0.0,0.0,-3.3,4.85,-11.96
14:46:44.404,-0.02,0.01,-0.01,-3.44,4.92,-12.15
14:46:44.411,-0.01,0.0,-0.01,-3.6,4.84,-12.12
14:46:44.419,-0.03,0.0,-0.0,-3.47,5.15,-12.1
14:46:44.426,-0.03,0.0,-0.0,-3.34,4.98,-11.96
14:46:44.433,-0.05,-0.0,-0.01,-3.35,4.84,-12.06
14:46:44.440,-0.03,0.0,-0.01,-3.51,4.91,-12.22
14:46:44.448,-0.04,0.01,-0.01,-3.45,4.95,-12.25
14:46:44.455,-0.05,-0.02,-0.0,-3.49,5.01,-12.28
14:46:44.462,-0.04,-0.0,0.01,-3.5,4.94,-12.0
14:46:44.470,-0.04,-0.0,-0.01,-3.48,4.99,-12.37
14:46:44.477,-0.04,0.0,-0.01,-3.39,4.76,-12.57
14:46:44.485,-0.05,-0.0,-0.0,-3.49,4.99,-12.47
14:46:44.492,-0.05,-0.0,-0.01,-3.53,4.93,-12.28
14:46:44.499,-0.04,-0.0,-0.01,-3.43,4.91,-12.48
14:46:44.507,-0.04,-0.0,0.01,-3.44,5.09,-12.57
14:46:44.514,-0.05,-0.0,-0.01,-3.51,4.88,-12.78
14:46:44.521,-0.05,-0.01,-0.01,-3.4,4.93,-12.82
14:46:44.529,-0.05,-0.0,-0.01,-3.47,4.84,-12.84
14:46:44.536,-0.05,0.0,-0.01,-3.35,4.98,-12.74
14:46:44.543,-0.06,0.0,0.01,-3.53,5.1,-12.75
14:46:44.550,-0.07,0.0,0.0,-3.47,5.22,-12.9
14:46:44.558,-0.07,-0.0,-0.01,-3.31,5.0,-13.19
14:46:44.565,-0.07,0.01,-0.02,-3.44,5.27,-13.05
14:46:44.572,-0.08,-0.0,-0.01,-3.42,5.02,-12.91
14:46:44.580,-0.09,-0.01,-0.01,-3.57,5.07,-12.76
14:46:44.587,-0.09,0.0,-0.01,-3.37,5.01,-12.64
14:46:44.594,-0.09,-0.0,-0.01,-3.6,5.06,-12.5
14:46:44.602,-0.09,-0.0,-0.01,-3.5,4.94,-12.71
14:46:44.609,-0.1,0.0,-0.0,-3.53,4.94,-12.47
14:46:44.616,-0.1,-0.01,-0.0,-3.59,4.94,-10.41
14:46:44.623,-0.11,-0.01,0.01,-3.51,5.01,-12.29
14:46:44.631,-0.11,0.0,-0.01,-3.56,4.77,-12.32
14:46:44.638,-0.11,-0.0,-0.01,-3.53,4.67,-11.98
14:46:44.645,-0.12,-0.02,-0.01,-3.63,4.75,-11.85
14:46:44.652,-0.12,0.0,-0.02,-3.51,4.73,-11.69
14:46:44.660,-0.12,-0.01,-0.02,-3.52,4.31,-11.41
14:46:44.667,-0.13,-0.0,-0.03,-3.58,4.41,-11.1
14:46:44.674,-0.14,0.0,-0.02,-3.49,4.25,-11.05
14:46:44.682,-0.12,-0.0,-0.0,-3.6,4.2,-10.7
14:46:44.689,-0.15,-0.0,-0.01,-3.74,3.9,-10.11
14:46:44.696,-0.15,-0.01,-0.01,-3.76,3.88,-9.9
14:46:44.704,-0.16,-0.01,-0.03,-3.71,3.56,-9.35
14:46:44.711,-0.16,-0.01,-0.01,-2.06,3.26,-8.89
14:46:44.718,-0.17,-0.0,-0.02,-3.75,3.14,-8.47
14:46:44.725,-0.18,-0.01,-0.03,-3.66,2.61,-8.1
14:46:44.733,-0.17,0.0,-0.01,-3.97,2.78,-7.52
14:46:44.740,-0.17,-0.0,-0.01,-4.0,2.46,-7.05
14:46:44.747,-0.18,-0.02,-0.01,-3.85,2.38,-6.64
14:46:44.755,-0.19,0.0,-0.01,-3.98,2.2,-5.73
14:46:44.762,-0.21,-0.0,-0.02,-4.15,1.76,-5.22
14:46:44.769,-0.18,-0.0,-0.03,-4.1,1.61,-4.66
14:46:44.777,-0.2,0.0,-0.03,-4.31,1.45,-4.15
14:46:44.784,-0.2,-0.0,-0.03,-4.13,0.99,-3.49
14:46:44.791,-0.19,-0.0,-0.03,-4.25,1.09,-3.05
14:46:44.798,-0.2,0.0,-0.02,-4.32,0.69,-2.34
14:46:44.806,-0.21,-0.0,-0.0,-4.47,0.28,-1.84
14:46:44.813,-0.19,-0.0,-0.02,-4.5,0.43,-1.29
14:46:44.820,-0.19,-0.0,-0.02,-4.63,0.13,-1.01
14:46:44.828,-0.18,0.0,-0.02,-4.48,0.04,-0.43
14:46:44.835,-0.18,0.0,-0.02,-4.58,-0.15,-0.03
14:46:44.842,-0.19,-0.0,-0.03,-4.45,-0.37,0.56
14:46:44.849,-0.18,-0.0,-0.02,-4.58,-0.58,0.69
14:46:44.857,-0.17,-0.01,-0.02,-4.55,-0.64,1.14
14:46:44.864,-0.17,-0.0,-0.01,-4.53,-0.69,1.44
14:46:44.871,-0.18,0.0,-0.02,-4.66,-0.54,1.82
14:46:44.879,-0.16,0.0,-0.01,-4.73,-0.67,1.84
14:46:44.886,-0.15,-0.0,-0.01,-4.73,-0.82,2.19
14:46:44.893,-0.16,-0.0,-0.02,-4.79,-0.65,2.64
14:46:44.900,-0.16,-0.0,-0.01,-4.6,-1.05,2.87
14:46:44.908,-0.16,-0.0,-0.01,-4.76,-1.01,3.04
14:46:44.915,-0.16,-0.0,-0.01,-4.95,-1.41,3.59
14:46:44.922,-0.15,-0.0,-0.02,-4.95,-1.51,3.87
14:46:44.930,-0.16,-0.0,-0.02,-4.86,-1.73,4.16
14:46:44.937,-0.17,-0.0,-0.01,-4.89,-1.82,4.56
14:46:44.944,-0.16,-0.01,-0.01,-4.93,-1.93,4.8
14:46:44.951,-0.16,0.01,-0.01,-4.98,-2.1,5.11
14:46:44.959,-0.16,-0.0,-0.02,-5.14,-1.95,5.43
14:46:44.966,-0.16,-0.0,-0.01,-5.15,-2.3,5.91
14:46:44.973,-0.16,-0.0,-0.01,-5.06,-2.21,6.07
14:46:44.981,-0.15,0.0,-0.02,-5.07,-2.36,6.56
14:46:44.988,-0.16,-0.0,-0.02,-5.05,-2.51,6.59
14:46:44.995,-0.15,-0.0,-0.02,-5.13,-2.86,6.94
14:46:45.003,-0.15,-0.0,-0.02,-5.24,-2.76,7.41
14:46:45.010,-0.14,0.0,-0.01,-5.17,-2.8,7.46
14:46:45.017,-0.14,0.0,-0.01,-5.15,-2.83,7.78
14:46:45.024,-0.14,0.01,-0.01,-5.3,-3.19,7.94
14:46:45.032,-0.14,0.0,-0.02,-5.47,-3.48,8.36
14:46:45.039,-0.13,-0.01,-0.02,-5.31,-3.5,8.55
14:46:45.046,-0.13,0.0,-0.01,-5.44,-3.51,8.85
14:46:45.054,-0.13,0.0,-0.02,-5.19,-5.62,8.98
14:46:45.061,-0.12,-0.0,-0.01,-5.44,-1.8,9.13
14:46:45.068,-0.12,-0.0,-0.01,-5.33,-3.91,9.26
14:46:45.076,-0.11,-0.0,-0.01,-5.31,-5.64,9.66
14:46:45.083,-0.11,-0.0,-0.01,-5.45,-3.69,9.47
14:46:45.090,-0.11,0.0,-0.01,-5.3,-3.86,9.58
14:46:45.097,-0.11,-0.0,-0.0,-5.41,-3.62,9.61
14:46:45.105,-0.09,0.0,-0.01,-5.39,-3.95,9.78
14:46:45.112,-0.11,-0.0,-0.01,-5.46,-3.85,9.88
14:46:45.119,-0.1,0.0,-0.01,-5.55,-3.92,10.1
14:46:45.127,-0.11,-0.01,-0.01,-5.42,-4.29,10.43
14:46:45.134,-0.11,0.0,-0.02,-5.53,-4.46,10.56
14:46:45.141,-0.12,-0.0,-0.02,-5.44,-4.41,10.9
14:46:45.148,-0.12,-0.0,-0.02,-5.72,-4.45,11.14
14:46:45.156,-0.11,0.01,-0.02,-5.54,-4.81,11.36
14:46:45.163,-0.12,-0.0,-0.02,-5.71,-4.77,11.9
14:46:45.170,-0.12,0.01,-0.01,-5.76,-4.91,11.89
14:46:45.178,-0.12,0.0,-0.01,-5.6,-5.09,12.28
14:46:45.185,-0.11,0.0,-0.01,-5.76,-5.15,12.63
14:46:45.192,-0.1,0.0,-0.01,-5.66,-5.25,12.92
14:46:45.199,-0.11,0.0,-0.02,-5.74,-5.27,13.36
14:46:45.207,-0.11,-0.0,-0.01,-5.81,-5.48,13.36
14:46:45.214,-0.1,-0.0,-0.01,-5.75,-5.38,13.65
14:46:45.221,-0.09,0.0,-0.01,-5.79,-5.48,13.88
14:46:45.229,-0.08,0.01,-0.01,-5.88,-3.71,13.87
14:46:45.236,-0.08,-0.01,-0.01,-7.79,-7.61,13.96
14:46:45.243,-0.08,0.0,-0.0,-5.73,-5.84,14.05
14:46:45.250,-0.07,-0.01,0.01,-5.71,-5.75,14.49
14:46:45.258,-0.07,0.0,-0.02,-5.89,-5.87,14.46
14:46:45.265,-0.06,-0.01,-0.01,-6.02,-5.92,14.61
14:46:45.272,-0.06,0.01,-0.01,-5.66,-6.17,14.62
14:46:45.280,-0.05,0.0,-0.0,-5.95,-5.83,14.78
14:46:45.287,-0.05,-0.0,-0.02,-3.92,-5.73,14.69
14:46:45.294,-0.05,-0.0,-0.01,-7.79,-5.9,14.49
14:46:45.301,-0.04,-0.0,-0.0,-5.77,-5.61,14.46
14:46:45.309,-0.03,-0.0,-0.01,-5.86,-5.8,14.43
14:46:45.316,-0.03,0.0,-0.0,-7.82,-5.72,14.52
14:46:45.323,-0.03,-0.0,-0.0,-6.02,-5.88,14.32
14:46:45.331,-0.03,0.0,-0.02,-5.96,-7.59,14.25
14:46:45.338,-0.03,-0.01,0.0,-5.74,-5.73,14.56
14:46:45.345,-0.02,0.01,-0.0,-5.97,-5.54,14.2
14:46:45.352,-0.02,-0.0,-0.01,-5.9,-5.48,14.25
14:46:45.360,-0.02,0.0,-0.0,-7.8,-5.64,14.26
14:46:45.367,-0.01,-0.0,0.0,-5.8,-5.47,13.92
14:46:45.374,-0.01,0.0,0.0,-5.79,-5.29,13.82
14:46:45.382,0.0,0.0,-0.01,-5.82,-5.3,13.75
14:46:45.389,-0.0,-0.0,-0.0,-5.92,-5.28,13.64
14:46:45.396,0.01,-0.0,0.01,-5.9,-5.22,13.65
14:46:45.403,0.01,0.01,-0.0,-5.92,-5.41,13.55
14:46:45.411,-0.0,-0.02,-0.02,-6.01,-5.26,13.46
14:46:45.418,0.01,-0.01,0.01,-6.04,-5.24,13.1
14:46:45.425,0.01,0.0,-0.01,-5.89,-5.3,13.25
14:46:45.433,0.0,0.0,-0.01,-5.97,-5.52,13.3
14:46:45.440,0.0,-0.01,0.0,-5.78,-5.21,13.36
14:46:45.447,-0.0,-0.01,0.0,-5.95,-5.36,13.07
14:46:45.454,0.0,0.0,0.01,-7.81,-5.4,13.18
14:46:45.462,0.0,0.01,-0.01,-5.85,-5.35,13.14
14:46:45.469,-0.0,0.0,-0.03,-5.89,-5.51,13.37
14:46:45.477,-0.02,0.03,0.01,-3.92,-3.76,13.42
14:46:45.484,0.02,0.04,0.0,-5.93,-5.42,13.25
14:46:45.491,-0.01,-0.03,-0.01,-5.69,-5.26,13.12
14:46:45.499,0.02,-0.02,0.04,-5.7,-5.15,14.97
14:46:45.506,-0.01,-0.02,0.02,-5.78,-5.19,12.93
14:46:45.513,0.06,0.04,-0.04,-5.63,-4.96,12.66
14:46:45.521,0.04,-0.02,-0.01,-5.97,-4.83,12.73
14:46:45.528,0.05,-0.03,0.03,-3.95,-4.96,12.23
14:46:45.535,0.07,0.03,0.02,-5.75,-4.68,11.49
14:46:45.542,0.11,0.0,0.02,-5.85,-4.48,11.13
14:46:45.550,0.06,-0.01,0.02,-5.68,-4.4,10.65
14:46:45.557,0.1,0.01,-0.0,-5.71,-4.03,10.16
14:46:45.564,0.07,-0.01,0.0,-5.61,-3.76,9.64
14:46:45.572,0.07,-0.0,-0.0,-5.51,-3.79,9.48
14:46:45.579,0.08,-0.0,0.01,-5.42,-3.44,9.06
14:46:45.586,0.08,0.0,0.01,-5.5,-3.49,8.7
14:46:45.593,0.07,0.0,0.01,-5.58,-3.35,8.67
14:46:45.601,0.05,0.01,-0.0,-5.46,-3.3,8.58
14:46:45.608,0.07,0.0,0.01,-5.64,-3.28,8.6
14:46:45.616,0.05,-0.01,0.01,-5.4,-3.46,8.43
14:46:45.623,0.04,-0.0,-0.0,-5.55,-3.37,8.18
14:46:45.630,0.04,0.0,0.01,-5.44,-3.49,8.49
14:46:45.638,0.02,0.0,0.01,-5.47,-3.41,8.45
14:46:45.645,0.04,0.0,0.01,-5.57,-3.54,8.44
14:46:45.652,0.03,-0.0,0.01,-5.47,-3.61,8.48
14:46:45.659,0.02,0.0,0.01,-5.68,-3.52,8.52
14:46:45.667,0.03,0.0,0.01,-5.65,-3.6,8.84
14:46:45.674,0.03,-0.01,0.01,-5.68,-3.63,9.07
14:46:45.681,0.05,0.0,0.0,-5.81,-3.58,8.82
14:46:45.689,0.04,-0.01,0.01,-5.76,-3.65,8.85
14:46:45.696,0.07,-0.0,0.0,-5.4,-3.44,8.92
14:46:45.703,0.02,-0.0,0.01,-5.61,-3.36,8.73
14:46:45.710,0.07,0.01,0.01,-5.6,-3.49,8.49
14:46:45.718,0.07,0.02,0.01,-5.61,-3.44,8.22
14:46:45.725,0.07,-0.02,0.02,-5.5,-3.15,7.99
14:46:45.732,0.08,0.01,0.01,-5.27,-3.19,7.91
14:46:45.740,0.11,0.0,0.01,-5.44,-2.83,7.35
14:46:45.747,0.1,-0.0,0.01,-5.37,-2.77,7.05
14:46:45.754,0.1,-0.01,0.02,-5.27,-2.6,6.75
14:46:45.761,0.11,-0.01,-0.0,-5.53,-2.38,6.53
14:46:45.769,0.11,-0.01,0.01,-5.18,-2.27,6.04
14:46:45.776,0.12,-0.01,0.01,-5.34,-1.93,5.56
14:46:45.783,0.12,-0.0,0.02,-5.03,-1.67,5.1
14:46:45.790,0.13,-0.01,0.01,-5.2,-1.7,4.65
14:46:45.798,0.12,0.0,-0.0,-5.1,-1.46,4.27
14:46:45.805,0.13,-0.02,0.03,-5.02,-1.41,3.82
14:46:45.812,0.11,0.0,0.01,-4.98,-1.03,3.55
14:46:45.820,0.12,0.0,0.01,-5.06,-1.26,3.36
14:46:45.827,0.11,0.01,0.02,-5.02,-1.03,2.78
14:46:45.834,0.12,-0.01,0.0,-4.89,-0.38,2.33
14:46:45.841,0.13,-0.01,0.0,-4.86,-0.65,1.8
14:46:45.849,0.11,0.0,0.01,-4.76,-0.52,1.74
14:46:45.856,0.11,-0.0,0.01,-4.66,-0.31,1.4
14:46:45.863,0.12,0.0,0.0,-4.59,-0.35,1.06
14:46:45.871,0.12,-0.01,0.03,-4.5,-0.07,0.69
14:46:45.878,0.12,-0.0,0.02,-4.6,0.12,0.43
14:46:45.885,0.11,0.01,0.0,-4.53,0.15,-0.1
14:46:45.892,0.12,-0.0,0.01,-4.47,0.36,-0.62
14:46:45.900,0.12,-0.01,0.01,-4.37,0.46,-0.78
14:46:45.907,0.13,-0.0,0.02,-4.46,0.81,-1.39
14:46:45.914,0.12,-0.01,0.02,-4.14,0.92,-1.89
14:46:45.921,0.13,-0.01,0.01,-4.55,1.09,-2.47
14:46:45.929,0.12,-0.0,-0.0,-4.3,1.12,-2.71
14:46:45.936,0.13,-0.01,0.0,-4.21,1.52,-3.15
14:46:45.943,0.12,-0.01,0.01,-4.1,1.64,-3.69
14:46:45.951,0.11,-0.0,0.01,-3.96,1.73,-4.12
14:46:45.958,0.13,-0.01,0.01,-4.08,1.72,-4.45
14:46:45.965,0.12,0.0,0.01,-4.25,1.88,-4.87
14:46:45.972,0.11,-0.02,0.02,-3.95,2.12,-5.21
14:46:45.980,0.11,-0.01,0.02,-3.82,2.07,-5.7
14:46:45.987,0.13,0.0,-0.0,-3.82,2.43,-6.0
14:46:45.994,0.12,0.0,0.01,-3.78,2.46,-6.49
14:46:46.002,0.12,-0.0,0.02,-3.98,2.78,-7.04
14:46:46.009,0.13,-0.01,0.0,-3.63,2.92,-7.22
14:46:46.016,0.11,-0.0,0.0,-3.74,3.4,-7.8
14:46:46.024,0.12,-0.01,0.03,-3.44,3.32,-8.24
14:46:46.031,0.1,0.0,0.01,-3.4,3.5,-8.44
14:46:46.038,0.11,-0.01,0.01,-3.63,3.67,-9.14
14:46:46.045,0.1,-0.01,0.01,-3.47,3.82,-9.55
14:46:46.053,0.09,-0.0,-0.0,-3.46,3.9,-9.94
14:46:46.060,0.1,0.0,0.01,-3.46,4.17,-10.16
14:46:46.067,0.09,-0.01,0.01,-3.33,4.23,-10.8
14:46:46.075,0.09,-0.01,0.0,-3.47,4.69,-11.09
14:46:46.082,0.1,-0.0,0.0,-3.29,4.51,-11.38
14:46:46.089,0.1,-0.0,0.01,-3.24,4.92,-11.7
14:46:46.096,0.08,-0.01,0.01,-3.03,4.76,-11.94
14:46:46.104,0.08,-0.0,0.01,-3.15,4.88,-12.06
14:46:46.111,0.07,-0.01,0.01,-2.79,4.94,-10.44
14:46:46.118,0.07,-0.0,0.01,-3.15,5.01,-12.77
14:46:46.126,0.06,-0.0,0.01,-3.12,5.0,-12.78
14:46:46.133,0.07,0.01,0.03,-3.23,5.08,-12.77
14:46:46.140,0.03,0.02,0.0,-3.08,5.2,-12.72
14:46:46.147,0.02,0.02,0.01,-3.14,5.06,-12.76
14:46:46.155,-0.02,-0.0,0.02,-3.2,5.25,-12.51
14:46:46.162,-0.02,0.01,-0.01,-3.07,5.0,-12.21
14:46:46.169,-0.02,0.01,-0.01,-3.12,4.88,-12.07
14:46:46.177,-0.0,0.0,0.01,-3.29,4.58,-11.51
14:46:46.184,-0.03,0.0,0.01,-3.34,4.25,-11.36
14:46:46.191,-0.04,-0.01,0.0,-3.31,4.27,-11.0
14:46:46.198,-0.03,0.0,0.01,-3.35,4.03,-12.3
14:46:46.206,-0.03,0.01,-0.01,-3.38,3.85,-10.41
14:46:46.213,-0.01,0.01,-0.02,-3.57,3.85,-10.07
14:46:46.220,-0.02,-0.01,-0.01,-3.7,3.67,-9.93
14:46:46.228,-0.01,-0.0,0.0,-3.73,3.85,-9.8
14:46:46.235,-0.01,0.01,0.0,-3.66,3.81,-9.86
14:46:46.242,0.0,0.01,0.01,-3.49,3.76,-9.75
14:46:46.249,0.01,-0.0,-0.0,-3.49,3.85,-9.83
14:46:46.257,0.0,0.01,-0.0,-3.38,3.9,-9.84
14:46:46.264,0.01,0.0,-0.01,-3.47,2.17,-10.0
14:46:46.271,0.02,0.0,-0.01,-3.58,4.04,-10.18
14:46:46.279,0.02,0.0,0.01,-3.53,4.14,-12.33
14:46:46.286,0.02,0.01,0.01,-3.39,4.22,-10.63
14:46:46.293,0.02,0.01,-0.0,-3.3,4.24,-10.77
14:46:46.300,0.01,-0.0,0.01,-3.53,4.26,-11.13
14:46:46.308,0.02,-0.0,-0.0,-3.32,4.43,-11.14
14:46:46.315,0.01,-0.0,-0.0,-3.48,4.55,-11.24
14:46:46.322,0.01,-0.0,-0.0,-3.43,4.46,-11.33
14:46:46.330,0.0,0.0,0.01,-3.35,4.56,-11.32
14:46:46.337,-0.0,-0.0,0.01,-3.33,4.64,-11.45
14:46:46.344,-0.0,0.0,-0.01,-3.43,4.81,-11.51
14:46:46.351,-0.01,0.01,-0.01,-3.52,4.81,-11.51
14:46:46.359,-0.02,-0.01,0.0,-3.24,4.71,-11.61
14:46:46.366,-0.01,0.0,0.01,-3.43,4.69,-11.74
14:46:46.373,-0.01,0.0,-0.01,-3.34,4.77,-11.8
14:46:46.381,-0.02,-0.0,-0.0,-3.39,4.98,-11.84
14:46:46.388,-0.02,0.0,-0.0,-3.6,4.9,-11.81
14:46:46.395,-0.02,0.0,-0.01,-3.3,4.88,-11.83
14:46:46.402,-0.04,-0.0,-0.01,-3.51,4.85,-11.95
14:46:46.410,-0.03,0.01,0.0,-3.34,4.81,-11.9
14:46:46.417,-0.04,0.0,-0.02,-3.43,4.75,-11.89
14:46:46.424,-0.05,0.0,0.0,-3.4,4.56,-11.67
14:46:46.432,-0.04,0.0,-0.01,-3.57,4.62,-11.69
14:46:46.439,-0.05,0.0,-0.01,-3.36,4.69,-11.61
14:46:46.446,-0.05,-0.0,-0.01,-3.68,4.63,-11.25
14:46:46.453,-0.06,-0.0,-0.01,-3.46,4.37,-11.18
14:46:46.461,-0.06,-0.0,-0.02,-3.56,4.48,-11.01
14:46:46.468,-0.06,0.0,0.0,-3.62,4.46,-10.82
14:46:46.476,-0.07,0.02,-0.01,-3.42,4.37,-10.78
14:46:46.483,-0.08,0.01,-0.02,-3.64,4.35,-10.64
14:46:46.490,-0.07,-0.0,-0.01,-3.65,4.06,-10.26
14:46:46.498,-0.08,0.0,-0.01,-3.62,4.2,-10.32
14:46:46.505,-0.06,0.0,-0.01,-3.63,4.17,-10.25
14:46:46.512,-0.08,0.0,-0.01,-3.71,3.95,-9.97
14:46:46.520,-0.07,-0.0,-0.01,-3.64,3.89,-9.93
14:46:46.527,-0.07,0.02,-0.01,-3.58,6.04,-9.83
14:46:46.534,-0.07,-0.0,-0.01,-3.81,3.94,-9.9
14:46:46.541,-0.07,0.0,-0.0,-3.67,3.88,-9.78
14:46:46.549,-0.07,-0.0,-0.02,-3.83,3.73,-9.55
14:46:46.556,-0.07,0.0,-0.01,-3.76,3.82,-9.67
14:46:46.563,-0.07,-0.0,-0.0,-3.49,3.65,-9.31
14:46:46.571,-0.09,0.0,-0.01,-3.69,3.76,-9.18
14:46:46.578,-0.08,0.0,-0.0,-3.73,3.75,-9.13
14:46:46.585,-0.08,-0.0,-0.01,-3.76,3.46,-9.03
14:46:46.592,-0.08,0.01,0.0,-3.66,3.68,-8.86
14:46:46.600,-0.08,0.01,-0.01,-3.82,3.4,-8.95
14:46:46.607,-0.09,0.0,-0.0,-3.73,3.26,-8.66
14:46:46.614,-0.08,-0.0,-0.01,-3.76,3.32,-8.51
14:46:46.622,-0.1,0.0,-0.01,-3.69,3.34,-8.17
14:46:46.629,-0.1,-0.01,-0.01,-3.97,3.01,-8.09
14:46:46.636,-0.11,-0.0,-0.0,-3.83,2.78,-7.71
14:46:46.643,-0.11,0.0,-0.02,-3.95,2.78,-7.43
14:46:46.651,-0.11,0.01,-0.02,-3.88,2.46,-7.12
14:46:46.658,-0.12,0.0,-0.01,-4.0,2.29,-6.8
14:46:46.665,-0.13,0.0,-0.02,-5.85,2.23,-6.19
14:46:46.673,-0.16,-0.01,-0.03,-4.16,1.89,-5.67
14:46:46.680,-0.15,0.0,-0.01,-4.16,1.47,-5.27
14:46:46.687,-0.15,-0.0,-0.01,-5.85,1.44,-4.74
14:46:46.694,-0.16,-0.0,-0.01,-4.38,1.36,-4.2
14:46:46.702,-0.16,-0.01,-0.01,-4.18,1.11,-3.61
14:46:46.709,-0.16,0.0,-0.01,-4.3,1.18,-3.34
14:46:46.716,-0.16,0.0,-0.01,-4.23,0.98,-2.84
14:46:46.723,-0.15,0.01,-0.01,-4.34,0.91,-2.4
14:46:46.731,-0.16,0.0,-0.01,-4.37,0.69,-1.96
14:46:46.738,-0.14,0.0,-0.01,-4.35,0.44,-1.52
14:46:46.745,-0.14,0.0,-0.01,-4.37,0.39,-1.38
14:46:46.753,-0.13,0.0,-0.02,-4.51,0.43,-1.02
14:46:46.760,-0.13,-0.0,-0.01,-4.38,0.26,-2.57
14:46:46.767,-0.12,-0.0,-0.02,-4.52,-0.06,-0.55
14:46:46.774,-0.12,0.0,-0.01,-4.46,0.03,-0.16
14:46:46.782,-0.12,0.01,-0.01,-4.6,-0.31,0.14
14:46:46.789,-0.12,-0.0,-0.01,-4.44,-0.46,0.49
14:46:46.796,-0.1,0.0,-0.01,-4.7,-0.31,0.54
14:46:46.804,-0.13,-0.0,-0.01,-4.77,-0.64,0.89
14:46:46.811,-0.13,-0.0,-0.02,-4.73,-0.48,1.04
14:46:46.818,-0.13,-0.0,-0.0,-4.75,-0.77,1.53
14:46:46.826,-0.13,-0.0,-0.02,-4.64,-0.75,2.06
14:46:46.833,-0.12,-0.02,-0.02,-4.7,-0.92,2.07
14:46:46.840,-0.13,-0.01,-0.01,-4.73,-1.11,2.49
14:46:46.847,-0.14,-0.0,-0.01,-4.7,-1.34,3.23
14:46:46.855,-0.13,0.0,-0.01,-4.85,-1.59,1.36
14:46:46.862,-0.14,-0.01,-0.01,-4.89,-1.68,4.02
14:46:46.869,-0.15,0.0,-0.01,-5.04,-1.86,4.41
14:46:46.877,-0.15,-0.0,-0.01,-4.96,-1.93,4.77
14:46:46.884,-0.15,0.01,-0.01,-4.93,-2.17,3.37
14:46:46.891,-0.16,-0.0,-0.01,-5.04,-2.37,5.72
14:46:46.899,-0.15,0.01,-0.01,-5.15,-2.65,6.52
14:46:46.906,-0.15,-0.0,-0.01,-5.04,-2.7,6.62
14:46:46.913,-0.13,0.0,-0.01,-5.09,-3.03,5.25
14:46:46.921,-0.14,-0.0,-0.02,-5.26,-3.15,7.78
14:46:46.928,-0.14,-0.0,-0.02,-5.31,-3.25,8.11
14:46:46.935,-0.13,0.0,-0.03,-5.29,-3.38,8.47
14:46:46.942,-0.12,-0.0,-0.01,-5.31,-3.48,8.68
14:46:46.950,-0.12,-0.0,-0.01,-5.45,-3.72,9.14
14:46:46.957,-0.11,-0.0,-0.0,-5.34,-3.64,9.36
14:46:46.964,-0.1,-0.0,-0.02,-5.36,-3.77,9.36
14:46:46.971,-0.09,-0.0,-0.01,-5.42,-3.67,9.7
14:46:46.979,-0.09,0.0,-0.0,-5.19,-3.8,9.83
14:46:46.986,-0.08,0.0,-0.0,-5.33,-3.73,9.88
14:46:46.993,-0.08,0.0,-0.01,-5.38,-4.05,10.04
14:46:47.001,-0.06,0.0,-0.01,-5.56,-3.92,10.0
14:46:47.008,-0.06,0.0,-0.01,-5.5,-3.96,10.13
14:46:47.015,-0.07,-0.0,-0.01,-5.59,-3.89,10.22
14:46:47.022,-0.06,0.0,-0.0,-5.47,-3.96,9.81
14:46:47.030,-0.07,0.01,-0.0,-5.4,-3.61,10.08
14:46:47.037,-0.06,-0.0,-0.01,-5.49,-3.83,10.07
14:46:47.044,-0.06,-0.0,-0.0,-5.46,-3.9,10.09
14:46:47.052,-0.05,-0.01,-0.01,-5.35,-3.93,10.25
14:46:47.059,-0.05,-0.0,-0.01,-5.39,-3.93,10.18
14:46:47.066,-0.05,0.0,0.01,-5.46,-3.96,10.14
14:46:47.073,-0.05,0.01,-0.0,-5.48,-3.99,10.11
14:46:47.081,-0.01,0.0,-0.01,-5.45,-3.89,9.92
14:46:47.088,-0.07,-0.0,0.0,-5.6,-3.85,10.35
14:46:47.095,-0.07,0.01,-0.0,-5.57,-4.15,10.42
14:46:47.103,-0.07,-0.0,-0.01,-5.67,-4.39,10.53
14:46:47.110,-0.06,0.01,-0.03,-5.52,-4.59,10.94
14:46:47.117,-0.07,-0.0,-0.0,-5.75,-4.61,10.98
14:46:47.124,-0.08,-0.0,-0.01,-5.82,-4.74,11.2
14:46:47.132,-0.07,0.01,-0.0,-5.58,-4.95,11.59
14:46:47.139,-0.07,0.0,0.01,-5.74,-4.69,11.63
14:46:47.146,-0.04,-0.0,-0.01,-5.6,-4.93,11.75
14:46:47.153,-0.05,-0.0,-0.01,-5.67,-4.47,11.75
14:46:47.161,-0.07,-0.0,-0.01,-5.72,-4.57,11.71
14:46:47.168,-0.02,-0.01,-0.02,-5.6,-4.35,11.42
14:46:47.175,-0.03,-0.01,0.0,-5.76,-4.44,11.62
14:46:47.183,-0.02,0.0,-0.0,-5.63,-4.49,11.75
14:46:47.190,-0.04,0.01,-0.01,-5.82,-4.8,11.68
14:46:47.197,-0.02,-0.0,-0.01,-3.94,-4.99,11.81
14:46:47.204,-0.03,-0.0,-0.0,-5.7,-4.96,11.9
14:46:47.212,-0.03,0.01,-0.01,-7.75,-5.15,12.03
14:46:47.219,-0.03,0.01,-0.01,-5.6,-5.19,12.28
14:46:47.226,-0.02,0.01,-0.01,-5.73,-5.23,12.47
14:46:47.234,-0.04,-0.0,-0.01,-5.71,-4.95,12.64
14:46:47.241,-0.03,0.01,-0.01,-6.11,-5.3,12.89
14:46:47.248,-0.03,0.02,-0.0,-5.92,-5.51,13.31
14:46:47.255,-0.06,-0.01,-0.01,-6.15,-5.61,13.69
14:46:47.263,-0.04,0.01,-0.01,-6.08,-3.77,13.8
14:46:47.270,-0.05,0.02,-0.02,-5.87,-5.9,14.0
14:46:47.277,-0.05,0.0,-0.0,-5.91,-5.99,14.65
14:46:47.284,-0.07,0.01,0.0,-6.01,-6.11,14.85
14:46:47.292,-0.05,-0.01,0.01,-6.2,-6.25,15.19
14:46:47.299,-0.04,0.01,0.0,-6.02,-6.48,15.52
14:46:47.306,-0.03,0.01,0.01,-6.14,-6.4,15.78
14:46:47.313,-0.03,0.01,0.01,-6.02,-6.47,15.89
14:46:47.321,-0.02,-0.0,-0.0,-5.86,-6.6,16.0
14:46:47.328,-0.02,-0.0,0.02,-6.11,-6.65,16.11
14:46:47.335,-0.01,0.01,0.0,-6.01,-6.6,16.2
14:46:47.343,0.01,0.04,-0.03,-6.06,-6.42,16.05
14:46:47.350,0.06,-0.01,-0.03,-6.17,-6.15,15.49
14:46:47.357,0.07,-0.04,0.02,-6.02,-5.75,14.68
14:46:47.364,0.1,0.02,-0.0,-6.11,-5.73,13.89
14:46:47.372,0.13,-0.0,0.02,-3.92,-5.51,13.52
14:46:47.379,0.07,0.0,0.02,-6.06,-5.2,13.3
14:46:47.386,0.11,0.01,0.02,-6.24,-5.01,12.93
14:46:47.393,0.08,0.02,-0.03,-6.14,-4.78,13.0
14:46:47.401,0.08,-0.01,0.02,-5.99,-4.52,12.43
14:46:47.408,0.08,-0.01,0.01,-7.82,-4.6,11.91
14:46:47.415,0.08,0.0,0.01,-5.8,-4.64,11.91
14:46:47.423,0.06,-0.0,0.0,-6.07,-4.61,11.85
14:46:47.430,0.06,-0.01,0.01,-5.93,-4.36,11.68
14:46:47.437,0.07,0.01,-0.01,-6.08,-4.69,11.5
14:46:47.444,0.06,-0.01,0.0,-5.92,-4.35,11.34
14:46:47.452,0.05,-0.0,0.02,-6.12,-4.48,11.2
14:46:47.459,0.06,0.0,0.0,-5.83,-4.35,11.25
14:46:47.466,0.06,-0.0,0.01,-5.9,-4.41,11.04
14:46:47.474,0.07,-0.0,0.0,-5.79,-4.19,11.01
14:46:47.481,0.06,-0.01,0.02,-5.71,-4.27,10.74
14:46:47.489,0.08,-0.0,0.0,-7.77,-4.3,10.62
14:46:47.496,0.08,-0.0,0.01,-5.79,-3.97,10.36
14:46:47.503,0.09,-0.01,0.01,-5.69,-3.83,9.98
14:46:47.511,0.09,-0.0,0.01,-5.61,-3.78,9.79
14:46:47.518,0.1,-0.0,0.01,-5.77,-5.65,9.36
14:46:47.525,0.1,-0.01,0.01,-5.68,-3.42,8.91
14:46:47.532,0.11,-0.01,0.02,-5.51,-3.18,8.49
14:46:47.540,0.11,-0.01,0.01,-5.49,-2.9,8.3
14:46:47.547,0.12,-0.0,0.03,-5.56,-3.18,8.07
14:46:47.554,0.12,-0.0,0.01,-5.25,-2.92,7.54
14:46:47.562,0.11,-0.01,0.01,-5.25,-3.02,7.38
14:46:47.569,0.11,-0.0,0.02,-5.23,-2.7,9.13
14:46:47.576,0.1,-0.01,0.01,-5.41,-2.63,6.89
14:46:47.584,0.11,-0.0,0.01,-5.32,-2.55,6.29
14:46:47.591,0.11,-0.01,0.0,-5.2,-2.7,6.2
14:46:47.598,0.1,-0.01,0.01,-5.15,-2.51,5.86
14:46:47.605,0.1,-0.0,-0.0,-5.21,-2.41,5.73
14:46:47.613,0.1,-0.01,0.01,-5.02,-2.48,5.46
14:46:47.620,0.1,-0.0,0.01,-5.2,-2.17,5.3
14:46:47.627,0.09,-0.0,0.01,-5.09,-2.02,5.14
14:46:47.634,0.1,-0.0,-0.0,-5.02,-1.99,5.12
14:46:47.642,0.1,0.0,0.01,-5.27,-1.99,4.77
14:46:47.649,0.09,0.0,-0.0,-5.12,-1.99,4.65
14:46:47.656,0.09,-0.0,0.01,-4.89,0.14,4.26
14:46:47.664,0.1,0.01,-0.0,-5.18,-1.56,4.27
14:46:47.671,0.09,-0.01,0.01,-5.08,-1.6,3.88
14:46:47.678,0.12,-0.01,0.02,-4.94,-1.19,3.66
14:46:47.686,0.11,0.0,0.01,-4.9,-1.13,3.53
14:46:47.693,0.1,-0.01,0.03,-4.96,-1.02,3.14
14:46:47.700,0.13,-0.01,0.02,-4.77,-0.48,2.65
14:46:47.707,0.13,-0.01,0.01,-4.67,-0.49,2.14
14:46:47.715,0.14,-0.0,0.01,-4.67,-0.18,1.72
14:46:47.722,0.15,-0.01,0.02,-4.8,-0.09,1.31
14:46:47.729,0.15,-0.0,0.01,-4.66,0.01,0.56
14:46:47.737,0.16,-0.01,0.01,-4.51,0.3,0.02
14:46:47.744,0.16,-0.0,0.01,-4.44,0.61,-0.43
14:46:47.751,0.17,-0.01,0.02,-4.4,0.75,-1.13
14:46:47.758,0.16,-0.01,0.02,-4.31,1.07,-1.86
14:46:47.766,0.16,-0.01,0.02,-4.29,1.27,-0.63
14:46:47.773,0.17,-0.02,0.02,-3.97,1.59,-3.0
14:46:47.780,0.17,-0.01,0.01,-4.02,1.85,-3.79
14:46:47.788,0.16,-0.01,0.01,-4.21,1.72,-4.2
14:46:47.795,0.17,-0.01,0.01,-3.94,2.05,-4.89
14:46:47.802,0.16,-0.01,0.01,-3.82,2.15,-5.48
14:46:47.809,0.15,0.0,0.02,-3.82,2.46,-6.07
14:46:47.817,0.15,-0.01,0.02,-3.77,2.59,-6.45
14:46:47.824,0.15,-0.01,0.02,-3.77,2.88,-6.89
14:46:47.831,0.14,-0.01,0.01,-3.47,3.06,-7.29
14:46:47.839,0.14,-0.01,0.01,-3.69,3.16,-7.93
14:46:47.846,0.12,-0.02,0.01,-3.79,3.46,-8.18
14:46:47.853,0.12,-0.01,0.01,-3.74,3.36,-10.36
14:46:47.861,0.12,-0.0,0.01,-3.59,3.57,-8.93
14:46:47.868,0.11,-0.0,0.03,-3.49,3.46,-9.36
14:46:47.875,0.11,-0.01,0.03,-3.32,3.65,-9.57
14:46:47.882,0.1,-0.01,0.01,-3.55,3.69,-9.73
14:46:47.890,0.1,-0.01,0.01,-3.46,4.01,-9.96
14:46:47.897,0.09,-0.0,0.0,-3.32,4.18,-10.28
14:46:47.904,0.09,-0.0,0.01,-3.25,5.99,-10.57
14:46:47.912,0.09,-0.01,0.0,-3.44,4.23,-8.49
14:46:47.919,0.08,-0.0,0.01,-3.5,4.18,-10.93
14:46:47.926,0.08,-0.0,0.0,-3.32,4.27,-11.12
14:46:47.933,0.08,-0.0,-0.0,-3.4,4.25,-11.22
14:46:47.941,0.07,-0.0,-0.01,-3.44,4.33,-10.86
14:46:47.948,0.07,-0.0,0.03,-3.08,4.42,-11.34
14:46:47.955,0.06,-0.0,0.01,-3.24,4.38,-11.44
14:46:47.963,0.05,-0.01,0.0,-3.21,4.42,-11.57
14:46:47.970,0.05,-0.01,0.01,-3.2,4.53,-11.72
14:46:47.977,0.04,-0.01,0.0,-3.11,4.51,-11.66
14:46:47.985,0.05,0.0,0.02,-3.32,4.81,-11.53
14:46:47.992,0.03,0.0,0.02,-3.26,4.87,-11.58
14:46:47.999,0.04,0.01,0.01,-3.08,4.83,-11.78
14:46:48.007,0.04,0.0,0.02,-3.13,4.57,-11.74
14:46:48.014,0.04,0.01,0.01,-3.22,4.77,-11.86
14:46:48.021,0.03,-0.0,0.0,-3.15,4.83,-11.63
14:46:48.028,0.04,0.0,-0.0,-3.18,4.66,-11.79
14:46:48.036,0.04,0.0,0.01,-3.09,4.78,-11.99
14:46:48.043,0.03,-0.0,0.01,-3.21,4.67,-11.81
14:46:48.050,0.03,-0.0,0.02,-3.24,4.71,-11.93
14:46:48.058,0.03,0.02,0.0,-3.34,4.78,-11.9
14:46:48.065,0.01,0.02,0.02,-3.27,4.64,-11.73
14:46:48.072,0.01,0.02,-0.0,-3.35,4.72,-11.65
14:46:48.079,0.0,0.0,-0.0,-3.36,4.64,-11.39
14:46:48.087,0.02,-0.01,0.01,-3.29,4.59,-11.39
14:46:48.094,-0.0,0.01,0.01,-3.21,4.23,-11.09
14:46:48.101,-0.0,0.01,-0.0,-3.56,4.27,-11.09
14:46:48.109,0.01,0.0,-0.03,-3.53,4.29,-11.24
14:46:48.116,0.01,-0.01,-0.0,-3.22,4.52,-11.14
14:46:48.123,0.01,-0.0,-0.0,-3.32,4.64,-11.16
14:46:48.130,0.01,0.0,0.0,-3.53,4.6,-11.44
14:46:48.138,0.01,0.01,0.01,-3.55,4.39,-11.25
14:46:48.145,0.01,-0.0,0.0,-3.21,4.58,-11.13
14:46:48.152,0.01,0.0,-0.0,-3.46,4.71,-11.38
14:46:48.160,0.01,0.0,-0.0,-3.38,4.56,-11.35
14:46:48.167,0.02,-0.01,0.01,-3.56,4.61,-11.62
14:46:48.174,0.02,-0.0,0.01,-3.33,4.65,-11.73
14:46:48.182,0.01,-0.0,0.0,-3.31,4.59,-11.83
14:46:48.189,0.02,0.0,-0.02,-3.24,4.7,-12.02
14:46:48.196,0.01,-0.0,0.01,-3.27,4.84,-12.15
14:46:48.204,0.01,0.0,-0.01,-3.29,4.84,-12.08
14:46:48.211,0.0,-0.0,-0.01,-3.3,4.75,-12.19
14:46:48.218,-0.0,0.0,-0.0,-3.25,4.62,-11.92
14:46:48.225,-0.02,-0.0,-0.01,-3.14,4.63,-12.15
14:46:48.233,-0.02,0.0,-0.01,-3.34,4.81,-12.04
14:46:48.240,-0.02,0.0,0.0,-3.31,4.88,-11.97
14:46:48.247,-0.01,0.0,-0.01,-3.13,4.87,-12.1
14:46:48.255,-0.03,0.0,-0.01,-3.44,4.91,-12.15
14:46:48.262,-0.04,0.01,-0.01,-3.38,4.71,-11.97
14:46:48.269,-0.03,0.0,-0.0,-3.34,4.71,-11.89
14:46:48.276,-0.03,0.01,-0.0,-3.29,4.88,-11.87
14:46:48.284,-0.03,0.01,0.0,-3.23,4.83,-11.94
14:46:48.291,-0.03,0.02,-0.0,-3.34,5.04,-11.79
14:46:48.298,-0.03,-0.01,-0.0,-3.44,4.75,-11.86
14:46:48.306,-0.03,-0.0,-0.01,-3.48,4.7,-12.0
14:46:48.313,-0.03,-0.0,-0.01,-3.42,4.84,-12.01
14:46:48.320,-0.04,-0.0,-0.01,-3.45,4.86,-11.96
14:46:48.328,-0.04,-0.0,-0.01,-3.47,4.78,-11.83
14:46:48.335,-0.04,-0.0,-0.01,-3.6,4.75,-11.84
14:46:48.342,-0.03,-0.0,-0.0,-3.36,4.78,-11.45
14:46:48.349,-0.04,0.01,-0.01,-3.5,4.61,-11.46
14:46:48.357,-0.06,-0.0,-0.01,-3.47,4.37,-11.46
14:46:48.364,-0.05,0.0,0.0,-3.59,4.38,-11.45
14:46:48.371,-0.06,-0.0,-0.01,-3.39,4.27,-11.31
14:46:48.379,-0.06,0.0,-0.0,-3.6,4.36,-11.21
14:46:48.386,-0.06,-0.01,-0.01,-3.56,4.33,-10.96
14:46:48.393,-0.06,0.01,-0.01,-3.56,4.43,-10.85
14:46:48.400,-0.06,-0.0,-0.0,-3.57,4.35,-10.78
14:46:48.408,-0.07,0.01,0.01,-3.42,4.23,-10.88
14:46:48.415,-0.07,-0.0,-0.02,-3.62,4.12,-10.88
14:46:48.422,-0.07,-0.0,-0.02,-3.56,4.07,-10.52
14:46:48.430,-0.07,0.0,-0.01,-3.82,4.14,-10.84
14:46:48.437,-0.07,0.0,-0.01,-3.65,6.06,-12.33
14:46:48.444,-0.06,0.0,-0.01,-3.56,4.18,-10.55
14:46:48.451,-0.06,-0.0,-0.01,-3.56,4.42,-10.77
14:46:48.459,-0.08,-0.0,-0.01,-3.75,4.29,-10.51
14:46:48.466,-0.09,0.0,-0.01,-3.59,6.04,-10.49
14:46:48.473,-0.08,0.01,-0.01,-3.71,4.01,-10.21
14:46:48.481,-0.08,-0.0,-0.01,-3.78,3.96,-10.12
14:46:48.488,-0.08,-0.0,-0.01,-3.79,3.81,-10.09
14:46:48.496,-0.09,-0.0,-0.01,-3.6,3.77,-9.66
14:46:48.503,-0.1,0.0,-0.01,-3.58,3.68,-9.68
14:46:48.510,-0.11,0.0,-0.01,-3.86,3.43,-9.6
14:46:48.518,-0.11,-0.01,-0.01,-3.66,3.36,-9.02
14:46:48.525,-0.11,-0.0,-0.02,-3.82,3.2,-8.69
14:46:48.532,-0.11,0.0,-0.01,-3.7,3.46,-8.72
14:46:48.539,-0.1,-0.0,-0.01,-3.76,3.22,-8.31
14:46:48.547,-0.12,0.0,-0.01,-3.77,2.98,-8.05
14:46:48.554,-0.12,-0.0,-0.01,-3.9,2.89,-7.67
14:46:48.561,-0.12,0.01,-0.03,-3.79,2.97,-7.3
14:46:48.569,-0.13,0.0,-0.02,-4.06,2.6,-6.99
14:46:48.576,-0.15,-0.0,-0.0,-3.77,2.43,-6.68
14:46:48.583,-0.14,-0.0,-0.01,-3.94,4.06,-6.27
14:46:48.590,-0.13,-0.0,-0.01,-4.05,1.98,-5.86
14:46:48.598,-0.15,0.0,-0.02,-4.15,1.92,-5.53
14:46:48.605,-0.15,-0.0,-0.01,-4.0,1.64,-5.0
14:46:48.612,-0.17,-0.0,-0.02,-4.11,1.52,-4.5
14:46:48.620,-0.18,0.0,-0.02,-4.08,1.18,-3.61
14:46:48.627,-0.18,-0.0,-0.01,-4.25,1.01,-3.23
14:46:48.634,-0.17,-0.0,-0.02,-4.27,0.48,-2.67
14:46:48.641,-0.17,-0.0,-0.01,-4.51,0.35,-2.02
14:46:48.649,-0.19,0.0,-0.01,-4.41,0.14,-1.38
14:46:48.656,-0.19,-0.0,-0.01,-4.56,-0.13,-2.54
14:46:48.663,-0.2,0.0,-0.02,-4.71,-0.43,-0.02
14:46:48.671,-0.19,-0.0,-0.02,-4.53,-0.77,0.63
14:46:48.678,-0.19,-0.0,-0.02,-4.68,-0.65,1.3
14:46:48.685,-0.18,-0.0,-0.03,-4.71,-1.15,1.97
14:46:48.692,-0.18,-0.0,-0.02,-4.78,-1.4,2.46
14:46:48.700,-0.19,0.01,-0.02,-4.92,-1.4,3.04
14:46:48.707,-0.17,-0.0,-0.0,-5.04,-3.7,3.72
14:46:48.714,-0.18,-0.0,-0.02,-4.92,-2.02,4.23
14:46:48.722,-0.18,-0.0,-0.01,-4.84,-2.03,4.85
14:46:48.729,-0.17,-0.0,-0.03,-4.9,-2.57,5.51
14:46:48.736,-0.17,0.0,-0.02,-5.06,-2.67,6.07
14:46:48.743,-0.17,0.0,-0.01,-5.23,-2.73,6.49
14:46:48.751,-0.17,-0.0,-0.03,-4.95,-3.12,5.33
14:46:48.758,-0.17,-0.0,-0.02,-5.15,-3.16,7.73
14:46:48.765,-0.16,0.0,-0.01,-5.22,-3.0,8.05
14:46:48.772,-0.16,0.0,-0.03,-5.32,-3.48,8.46
14:46:48.780,-0.15,-0.0,-0.02,-5.36,-3.58,8.91
14:46:48.787,-0.14,0.0,-0.01,-5.09,-3.67,9.23
14:46:48.794,-0.13,0.0,-0.01,-5.42,-3.83,9.54
14:46:48.801,-0.12,0.0,-0.01,-5.24,-3.79,9.94
14:46:48.809,-0.12,0.01,-0.01,-5.54,-3.77,10.31
14:46:48.816,-0.12,-0.0,-0.03,-5.43,-3.92,10.53
14:46:48.823,-0.11,-0.0,-0.01,-5.58,-4.04,10.63
14:46:48.831,-0.11,-0.0,-0.01,-5.58,-4.25,10.85
14:46:48.838,-0.1,-0.0,-0.02,-5.59,-4.57,9.23
14:46:48.845,-0.1,-0.0,-0.01,-5.48,-4.4,11.49
14:46:48.852,-0.1,0.0,-0.01,-5.64,-4.57,11.37
14:46:48.860,-0.09,-0.0,-0.01,-5.63,-4.46,11.48
14:46:48.867,-0.09,0.0,-0.01,-5.62,-4.39,11.77
14:46:48.874,-0.08,-0.0,-0.0,-5.63,-4.63,11.92
14:46:48.881,-0.09,-0.0,-0.01,-5.73,-4.64,12.22
14:46:48.889,-0.09,0.0,-0.01,-5.67,-4.72,12.28
14:46:48.896,-0.08,0.0,-0.01,-5.63,-4.83,12.35
14:46:48.903,-0.07,-0.0,-0.0,-3.92,-4.69,12.68
14:46:48.911,-0.08,0.0,-0.01,-5.74,-4.96,12.96
14:46:48.918,-0.08,-0.0,-0.01,-5.92,-5.11,12.96
14:46:48.925,-0.08,-0.0,-0.01,-5.67,-5.06,13.14
14:46:48.932,-0.07,0.0,-0.01,-5.75,-5.25,13.14
14:46:48.940,-0.06,-0.0,-0.01,-5.72,-5.16,13.43
14:46:48.947,-0.06,0.0,-0.02,-5.68,-5.25,13.41
14:46:48.954,-0.05,-0.0,-0.02,-5.76,-5.06,13.27
14:46:48.962,-0.04,-0.0,-0.0,-5.69,-5.07,13.34
14:46:48.969,-0.04,-0.0,-0.0,-5.68,-5.03,13.21
14:46:48.976,-0.03,0.0,0.01,-5.82,-5.21,13.19
14:46:48.984,-0.03,0.0,-0.01,-5.75,-4.88,14.98
14:46:48.991,-0.01,-0.01,-0.01,-5.77,-5.0,13.2
14:46:48.998,-0.01,-0.0,-0.01,-5.82,-5.07,14.94
14:46:49.005,-0.03,-0.0,-0.01,-5.63,-5.11,12.87
14:46:49.013,-0.02,-0.0,0.01,-5.66,-5.04,13.14
14:46:49.020,-0.03,0.0,-0.02,-5.89,-4.9,15.01
14:46:49.027,-0.02,0.0,-0.0,-5.73,-4.86,13.03
14:46:49.035,-0.04,0.0,-0.02,-5.93,-5.22,13.14
14:46:49.042,-0.03,0.0,0.0,-5.78,-5.01,13.01
14:46:49.049,-0.01,0.01,-0.01,-3.93,-5.15,12.92
14:46:49.056,-0.01,-0.0,-0.01,-5.69,-4.96,12.89
14:46:49.064,-0.02,0.01,-0.01,-5.74,-5.31,12.97
14:46:49.071,-0.01,-0.0,-0.01,-5.87,-5.2,12.98
14:46:49.078,0.0,-0.0,-0.01,-5.9,-5.44,12.9
14:46:49.086,-0.01,0.0,-0.0,-3.93,-5.45,11.11
14:46:49.093,-0.0,0.02,-0.01,-3.92,-5.39,13.04
14:46:49.100,-0.0,-0.0,0.0,-6.12,-5.2,12.82
14:46:49.107,0.0,-0.0,0.0,-5.78,-5.17,12.86
14:46:49.115,-0.0,0.0,0.0,-5.85,-5.22,12.87
14:46:49.122,-0.0,0.0,0.01,-5.77,-5.22,12.85
14:46:49.129,0.01,0.01,-0.0,-5.75,-5.07,12.7
14:46:49.136,0.02,0.0,-0.02,-7.81,-5.2,12.59
14:46:49.144,0.02,-0.0,0.01,-5.77,-5.03,12.3
14:46:49.151,0.01,-0.0,0.01,-5.78,-5.06,12.33
14:46:49.158,0.02,0.0,0.01,-5.67,-4.98,12.11
14:46:49.166,0.04,0.01,0.01,-5.57,-4.8,12.01
14:46:49.173,0.03,0.0,0.01,-5.8,-4.72,11.89
14:46:49.180,0.03,0.0,-0.0,-5.45,-4.73,11.72
14:46:49.187,0.02,0.0,0.01,-5.49,-4.64,11.56
14:46:49.195,0.03,0.02,-0.01,-5.6,-4.53,11.27
14:46:49.202,0.03,0.01,-0.03,-5.86,-4.28,13.01
14:46:49.209,0.06,-0.02,0.0,-5.66,-4.22,10.94
14:46:49.217,0.06,-0.0,0.01,-5.69,-4.22,10.54
14:46:49.224,0.08,0.0,-0.0,-5.54,-4.22,10.36
14:46:49.231,0.08,0.01,0.01,-5.5,-3.96,9.72
14:46:49.238,0.07,-0.0,0.01,-5.46,-4.09,11.07
14:46:49.246,0.07,-0.01,0.0,-5.56,-3.87,8.81
14:46:49.253,0.06,0.0,0.01,-5.61,-3.74,8.67
14:46:49.260,0.06,0.0,0.01,-5.5,-3.46,8.36
14:46:49.267,0.06,0.0,0.01,-5.23,-3.47,8.33
14:46:49.275,0.05,0.01,0.01,-5.4,-3.27,8.46
14:46:49.282,0.03,0.01,-0.0,-5.53,-3.53,8.29
14:46:49.289,0.05,-0.0,0.01,-5.63,-3.28,8.04
14:46:49.297,0.04,-0.0,0.01,-5.37,-3.12,7.93
14:46:49.304,0.04,0.0,0.01,-5.35,-3.4,8.15
14:46:49.311,0.04,0.01,-0.0,-5.49,-3.41,8.07
14:46:49.318,0.03,0.0,0.0,-5.43,-3.25,8.2
14:46:49.326,0.05,-0.0,0.0,-5.48,-3.22,8.07
14:46:49.333,0.03,-0.01,0.0,-5.54,-3.38,8.17
14:46:49.340,0.04,-0.0,0.01,-5.5,-3.34,8.08
14:46:49.348,0.04,0.01,-0.01,-5.54,-3.45,8.12
14:46:49.355,0.04,0.0,0.01,-5.39,-3.39,8.22
14:46:49.362,0.02,-0.0,0.01,-5.62,-3.56,8.2
14:46:49.369,0.03,-0.0,0.0,-5.5,-3.37,8.11
14:46:49.377,0.04,-0.0,0.01,-5.5,-3.47,8.31
14:46:49.384,0.05,0.0,0.0,-5.55,-3.31,8.13
14:46:49.391,0.05,0.0,0.01,-5.46,-3.28,8.09
14:46:49.398,0.06,-0.0,0.0,-5.41,-3.15,8.01
14:46:49.406,0.06,-0.0,0.01,-5.6,-3.3,7.96
14:46:49.413,0.06,-0.0,-0.0,-5.53,-3.22,7.97
14:46:49.420,0.07,-0.01,0.01,-5.76,-3.25,7.93
14:46:49.428,0.07,-0.0,0.01,-5.6,-3.16,7.59
14:46:49.435,0.07,-0.0,-0.0,-5.47,-3.26,7.65
14:46:49.442,0.08,-0.01,0.01,-5.3,-3.09,7.6
14:46:49.450,0.08,0.0,0.01,-5.56,-3.16,7.27
14:46:49.457,0.07,0.0,0.01,-5.34,-3.11,5.25
14:46:49.464,0.08,-0.01,0.01,-5.23,-3.03,7.01
14:46:49.471,0.08,0.01,-0.01,-5.3,-2.79,7.0
14:46:49.479,0.07,-0.0,0.0,-5.27,-2.83,7.12
14:46:49.486,0.07,-0.01,0.01,-5.34,-2.66,6.97
14:46:49.494,0.06,0.0,0.0,-5.34,-3.09,6.9
14:46:49.501,0.05,0.0,0.0,-5.23,-2.66,7.03
14:46:49.508,0.06,-0.0,-0.0,-5.42,-2.65,6.75
14:46:49.515,0.07,-0.0,0.01,-5.34,-2.53,6.78
14:46:49.523,0.07,-0.0,0.01,-5.37,-2.7,6.63
14:46:49.530,0.06,-0.01,0.01,-5.18,-2.65,6.51
14:46:49.537,0.07,-0.0,0.0,-5.24,-2.57,6.53
14:46:49.545,0.07,-0.0,0.0,-5.23,-2.5,6.56
14:46:49.552,0.07,-0.0,0.01,-5.35,-2.58,6.53
14:46:49.559,0.07,-0.01,0.01,-5.24,-2.56,6.64
14:46:49.566,0.08,-0.0,0.0,-5.21,-2.43,6.55
14:46:49.574,0.06,0.01,0.01,-5.16,-2.54,6.37
14:46:49.581,0.08,0.0,0.02,-5.42,-2.36,6.33
14:46:49.588,0.08,-0.02,-0.0,-5.26,-2.19,5.97
14:46:49.596,0.1,-0.0,0.0,-5.31,-2.05,6.07
14:46:49.603,0.09,-0.01,0.01,-5.2,-1.83,5.69
14:46:49.610,0.1,-0.02,0.02,-5.25,-1.81,7.14
14:46:49.617,0.12,0.0,0.0,-4.93,-1.57,5.21
14:46:49.625,0.13,-0.0,0.02,-5.04,-1.6,4.69
14:46:49.632,0.13,-0.0,-0.0,-5.04,-1.07,4.17
14:46:49.639,0.16,0.0,0.01,-4.85,-0.96,3.65
14:46:49.647,0.15,-0.0,0.01,-4.83,-0.76,3.17
14:46:49.654,0.16,0.0,0.02,-4.81,-0.62,2.47
14:46:49.661,0.16,-0.01,0.02,-4.69,-0.23,1.89
14:46:49.668,0.17,-0.01,0.01,-4.78,-0.3,1.23
14:46:49.676,0.17,-0.01,0.01,-4.75,-0.26,0.92
14:46:49.683,0.16,0.0,0.02,-4.52,-1.69,0.42
14:46:49.690,0.17,-0.01,0.02,-4.46,0.25,-0.15
14:46:49.697,0.16,-0.01,0.02,-4.54,0.37,-0.85
14:46:49.705,0.16,-0.01,0.02,-4.44,0.66,-1.36
14:46:49.712,0.16,-0.01,0.02,-4.31,0.72,-1.57
14:46:49.719,0.16,-0.0,0.01,-4.17,0.82,-2.25
14:46:49.727,0.15,-0.01,0.02,-4.32,0.98,-2.68
14:46:49.734,0.15,-0.01,0.0,-4.31,1.2,-2.96
14:46:49.741,0.14,-0.0,0.02,-4.14,1.36,-3.44
14:46:49.748,0.13,-0.01,0.03,-4.05,1.49,-3.9
14:46:49.756,0.15,-0.0,0.03,-4.2,1.77,-4.24
14:46:49.763,0.14,-0.01,0.01,-1.96,2.03,-4.56
14:46:49.770,0.13,-0.0,0.01,-4.04,2.0,-5.06
14:46:49.778,0.13,-0.02,0.02,-3.94,2.23,-5.35
14:46:49.785,0.13,-0.0,0.01,-3.94,2.4,-5.77
14:46:49.792,0.14,0.01,0.02,-3.85,2.49,-6.15
14:46:49.799,0.13,0.01,0.03,-3.75,2.76,-6.65
14:46:49.807,0.13,-0.01,0.01,-3.68,2.91,-7.04
14:46:49.814,0.12,-0.01,0.01,-3.6,2.92,-7.56
14:46:49.821,0.13,-0.01,0.02,-3.63,3.27,-7.86
14:46:49.829,0.13,-0.01,0.02,-3.71,3.25,-8.38
14:46:49.836,0.12,-0.01,0.0,-3.69,3.52,-8.73
14:46:49.843,0.13,-0.01,0.01,-3.47,3.68,-9.19
14:46:49.850,0.12,-0.01,0.01,-3.35,3.99,-9.51
14:46:49.858,0.13,-0.0,0.01,-3.5,4.02,-9.89
14:46:49.865,0.12,-0.01,0.01,-3.21,4.2,-10.32
14:46:49.872,0.12,-0.0,0.01,-3.22,4.5,-10.84
14:46:49.880,0.12,-0.01,0.02,-3.02,4.59,-11.32
14:46:49.887,0.12,-0.0,0.01,-3.06,4.64,-11.9
14:46:49.894,0.13,-0.01,0.02,-3.11,4.91,-12.41
14:46:49.901,0.13,-0.0,0.01,-3.18,5.14,-12.85
14:46:49.909,0.12,-0.01,0.01,-2.99,5.41,-13.28
14:46:49.916,0.12,-0.01,0.01,-2.92,5.62,-13.57
14:46:49.923,0.11,-0.01,0.01,-2.92,5.58,-14.14
14:46:49.930,0.11,-0.01,0.01,-3.0,5.79,-14.5
14:46:49.938,0.11,0.0,0.03,-2.76,5.92,-15.0
14:46:49.945,0.1,-0.0,0.01,-2.81,8.01,-15.4
14:46:49.952,0.08,-0.0,0.02,-2.74,5.98,-15.51
14:46:49.960,0.1,-0.0,0.02,-2.69,6.27,-15.87
14:46:49.967,0.07,-0.01,0.0,-2.73,6.37,-16.2
14:46:49.974,0.06,0.0,0.01,-2.45,6.48,-16.49
14:46:49.981,0.07,0.0,0.01,-2.46,6.69,-16.69
14:46:49.989,0.04,0.0,0.01,-2.34,6.65,-16.59
14:46:49.996,0.05,0.01,0.03,-2.79,6.78,-16.64
14:46:50.003,0.03,0.05,-0.02,-2.91,6.87,-16.67
14:46:50.011,-0.01,-0.0,0.03,-2.76,6.64,-16.44
14:46:50.018,0.0,0.03,-0.02,-2.79,6.51,-16.36
14:46:50.025,-0.01,-0.0,-0.01,-2.7,6.34,-16.02
14:46:50.032,-0.01,-0.01,-0.01,-2.75,6.12,-15.59
14:46:50.040,-0.03,0.01,-0.05,-2.86,5.71,-15.52
14:46:50.047,-0.02,0.02,-0.03,-3.09,5.69,-15.24
14:46:50.054,-0.02,-0.02,0.01,-3.04,5.99,-14.93
14:46:50.061,-0.01,0.0,0.01,-3.1,6.01,-14.89
14:46:50.069,0.0,0.0,0.0,-3.02,5.94,-14.84
14:46:50.076,0.0,-0.0,0.0,-3.09,5.89,-14.93
14:46:50.083,0.01,0.0,0.0,-2.97,5.93,-15.08
14:46:50.090,-0.01,-0.0,-0.02,-2.84,5.99,-14.96
14:46:50.098,0.02,0.0,-0.0,-2.99,7.97,-15.09
14:46:50.105,0.02,0.0,0.01,-3.3,5.99,-15.34
14:46:50.112,0.02,0.01,0.0,-2.99,5.93,-15.41
14:46:50.120,0.01,-0.0,0.0,-2.85,6.14,-15.7
14:46:50.127,0.01,0.01,-0.01,-2.96,5.99,-15.89
14:46:50.134,0.0,-0.01,0.01,-2.91,6.09,-15.86
14:46:50.141,-0.01,-0.01,0.0,-2.94,6.2,-15.92
14:46:50.149,-0.02,0.01,-0.01,-2.92,6.21,-15.86
14:46:50.156,-0.04,0.0,-0.02,-2.91,6.2,-15.91
14:46:50.163,-0.03,-0.01,-0.0,-3.02,6.42,-15.61
14:46:50.171,-0.04,-0.01,-0.01,-3.21,6.09,-15.33
14:46:50.178,-0.05,0.0,-0.0,-3.12,6.03,-15.44
14:46:50.185,-0.06,0.0,-0.0,-3.02,5.98,-14.99
14:46:50.192,-0.08,-0.0,-0.0,-3.18,5.85,-15.12
14:46:50.200,-0.07,-0.0,-0.0,-3.05,5.76,-14.61
14:46:50.207,-0.08,0.0,-0.01,-3.4,5.72,-16.24
14:46:50.214,-0.09,-0.0,-0.0,-3.3,5.59,-13.89
14:46:50.222,-0.09,-0.0,-0.01,-3.19,5.34,-13.51
14:46:50.229,-0.08,0.0,-0.01,-3.32,5.36,-13.06
14:46:50.236,-0.09,0.01,-0.01,-3.42,5.3,-12.92
14:46:50.243,-0.08,0.0,-0.0,-3.44,5.11,-12.57
14:46:50.251,-0.09,0.02,-0.01,-3.76,4.96,-14.28
14:46:50.258,-0.08,0.0,-0.01,-3.32,4.73,-12.03
14:46:50.265,-0.08,0.0,-0.0,-3.53,4.67,-11.73
14:46:50.272,-0.09,-0.0,-0.01,-3.45,4.49,-11.64
14:46:50.280,-0.08,-0.0,-0.01,-3.6,4.47,-11.24
14:46:50.287,-0.08,-0.0,-0.01,-3.69,4.38,-11.15
14:46:50.294,-0.09,0.0,-0.01,-3.56,4.27,-10.87
14:46:50.302,-0.09,0.0,-0.01,-3.7,4.37,-10.86
14:46:50.309,-0.09,-0.0,-0.0,-3.47,3.91,-10.55
14:46:50.316,-0.07,0.0,-0.0,-5.82,4.21,-10.41
14:46:50.323,-0.1,0.0,-0.01,-3.66,3.94,-10.3
14:46:50.331,-0.08,-0.0,-0.01,-3.63,3.78,-10.17
14:46:50.338,-0.09,0.0,-0.0,-3.42,3.87,-9.93
14:46:50.345,-0.09,0.0,-0.01,-3.6,3.78,-9.65
14:46:50.352,-0.09,0.0,-0.01,-3.71,3.78,-9.7
14:46:50.360,-0.07,0.0,-0.01,-3.49,3.79,-9.47
14:46:50.367,-0.09,0.0,-0.01,-3.69,3.55,-9.45
14:46:50.374,-0.09,-0.0,-0.01,-3.74,3.49,-9.54
14:46:50.381,-0.09,-0.0,-0.01,-3.73,3.73,-9.21
14:46:50.389,-0.1,0.0,-0.01,-3.67,3.59,-9.25
14:46:50.396,-0.1,-0.0,-0.01,-3.77,3.23,-8.76
14:46:50.403,-0.11,0.0,-0.01,-3.66,3.41,-6.51
14:46:50.411,-0.11,0.0,-0.02,-3.84,3.19,-8.16
14:46:50.418,-0.12,-0.0,-0.02,-3.85,2.87,-7.99
14:46:50.425,-0.14,-0.0,-0.01,-3.83,2.78,-7.46
14:46:50.432,-0.14,-0.0,-0.01,-3.82,2.67,-7.34
14:46:50.440,-0.14,-0.0,-0.01,-4.06,2.56,-6.71
14:46:50.447,-0.15,0.0,-0.01,-4.02,2.08,-6.3
14:46:50.454,-0.16,0.0,-0.01,-4.01,2.04,-5.45
14:46:50.461,-0.17,-0.0,-0.01,-4.11,1.92,-5.15
14:46:50.469,-0.17,0.0,-0.01,-4.28,1.53,-4.44
14:46:50.476,-0.17,-0.0,-0.01,-4.34,1.27,-3.81
14:46:50.483,-0.17,-0.0,-0.02,-4.18,1.01,-3.15
14:46:50.491,-0.19,-0.0,-0.02,-4.36,0.71,-2.27
14:46:50.499,-0.2,0.0,-0.01,-4.39,0.4,-1.66
14:46:50.506,-0.19,-0.0,-0.02,-4.46,0.38,-1.04
14:46:50.513,-0.18,-0.0,-0.02,-4.53,0.12,-0.55
14:46:50.520,-0.18,0.01,-0.02,-4.53,-0.34,0.07
14:46:50.528,-0.18,0.0,-0.01,-4.57,-0.52,1.06
14:46:50.535,-0.19,0.0,-0.01,-4.66,-0.73,1.42
14:46:50.542,-0.18,0.0,-0.02,-4.66,-0.8,2.09
14:46:50.550,-0.18,-0.01,-0.01,-4.68,-0.99,2.83
14:46:50.557,-0.17,0.0,-0.01,-4.97,-1.27,3.14
14:46:50.564,-0.17,-0.0,-0.01,-4.85,-1.41,3.89
14:46:50.571,-0.16,0.0,-0.02,-4.92,-1.52,4.26
14:46:50.579,-0.16,0.02,-0.03,-4.89,-2.11,4.64
14:46:50.586,-0.15,0.01,-0.02,-5.0,-2.1,5.33
14:46:50.593,-0.15,-0.0,-0.02,-4.96,-2.17,5.73
14:46:50.601,-0.14,0.01,-0.02,-5.13,-2.31,5.95
14:46:50.608,-0.14,0.01,-0.02,-4.96,-2.57,6.44
14:46:50.615,-0.15,0.0,-0.0,-5.2,-2.76,6.75
14:46:50.622,-0.13,0.01,-0.01,-5.09,-2.99,7.14
14:46:50.630,-0.13,0.0,-0.01,-5.1,-3.03,7.5
14:46:50.637,-0.13,-0.0,-0.01,-5.36,-3.04,7.59
14:46:50.644,-0.13,0.0,-0.02,-5.07,-3.31,8.06
14:46:50.652,-0.13,-0.0,-0.03,-5.39,-3.4,8.49
14:46:50.659,-0.13,0.0,-0.01,-5.24,-3.6,8.92
14:46:50.666,-0.12,-0.0,-0.01,-5.37,-3.74,9.23
14:46:50.674,-0.13,0.0,-0.03,-5.37,-3.84,9.54
14:46:50.681,-0.12,0.0,-0.02,-5.47,-3.79,9.72
14:46:50.688,-0.11,-0.0,-0.01,-5.25,-3.83,10.05
14:46:50.695,-0.13,0.0,-0.03,-5.44,-4.02,10.33
14:46:50.703,-0.11,0.0,-0.01,-5.44,-4.12,10.68
14:46:50.710,-0.11,0.0,-0.01,-5.34,-4.26,11.04
14:46:50.717,-0.12,-0.0,-0.02,-5.47,-4.44,11.14
14:46:50.725,-0.1,0.0,-0.01,-5.48,-4.51,11.46
14:46:50.732,-0.1,-0.0,-0.01,-5.38,-4.43,11.65
14:46:50.739,-0.09,0.01,-0.01,-5.56,-4.67,11.99
14:46:50.747,-0.09,0.0,-0.01,-5.58,-4.53,12.1
14:46:50.754,-0.09,0.0,-0.01,-5.69,-4.86,12.27
14:46:50.761,-0.08,-0.0,-0.0,-5.58,-4.78,12.52
14:46:50.769,-0.08,-0.01,-0.01,-5.76,-4.87,12.56
14:46:50.776,-0.08,0.0,-0.01,-5.75,-5.02,12.72
14:46:50.783,-0.07,0.0,-0.01,-5.6,-5.03,12.82
14:46:50.790,-0.06,-0.0,-0.01,-5.69,-4.91,12.92
14:46:50.798,-0.06,0.01,0.01,-5.77,-5.12,12.96
14:46:50.805,-0.06,-0.01,0.0,-5.72,-5.39,13.13
14:46:50.812,-0.05,0.0,-0.01,-5.61,-5.05,13.35
14:46:50.820,-0.05,0.0,-0.01,-5.96,-5.45,13.43
14:46:50.827,-0.05,0.0,-0.01,-5.75,-5.38,13.47
14:46:50.834,-0.05,-0.0,-0.01,-5.79,-5.57,13.58
14:46:50.841,-0.05,-0.0,-0.01,-3.93,-5.61,13.65
14:46:50.849,-0.05,-0.0,-0.02,-5.98,-5.55,13.78
14:46:50.856,-0.05,0.0,-0.0,-5.79,-5.64,14.02
14:46:50.863,-0.05,-0.0,-0.0,-6.05,-5.79,14.14
14:46:50.871,-0.04,0.01,0.01,-5.97,-5.96,14.48
14:46:50.878,-0.07,-0.0,-0.01,-5.88,-5.89,14.43
14:46:50.885,-0.06,0.01,-0.01,-6.14,-5.86,14.69
14:46:50.892,-0.05,0.0,0.0,-5.93,-5.9,14.98
14:46:50.900,-0.06,0.0,-0.02,-6.2,-6.08,15.19
14:46:50.907,-0.05,-0.01,-0.0,-6.08,-6.07,15.46
14:46:50.914,-0.05,-0.0,-0.03,-6.15,-6.1,15.69
14:46:50.922,-0.05,-0.0,-0.03,-5.96,-6.28,15.91
14:46:50.929,-0.04,-0.0,-0.01,-6.19,-6.67,16.11
14:46:50.936,-0.03,0.01,-0.01,-6.24,-6.48,16.14
14:46:50.943,-0.04,0.0,-0.0,-6.36,-6.8,16.48
14:46:50.951,-0.03,0.0,-0.0,-6.14,-6.82,16.51
14:46:50.958,-0.03,-0.0,-0.01,-6.27,-6.7,16.8
14:46:50.965,-0.02,-0.0,-0.0,-6.15,-6.92,16.94
14:46:50.973,-0.01,0.0,-0.0,-6.31,-6.94,16.94
14:46:50.980,-0.02,-0.01,0.0,-6.21,-6.98,17.12
14:46:50.987,-0.01,-0.0,0.01,-6.18,-7.08,17.23
14:46:50.994,0.0,0.0,-0.0,-6.07,-6.93,17.22
14:46:51.002,0.01,-0.0,0.01,-6.15,-6.9,17.24
14:46:51.009,0.01,-0.0,0.0,-6.13,-6.98,17.07
14:46:51.016,0.08,0.04,-0.04,-6.1,-6.5,16.76
14:46:51.024,0.05,-0.02,0.01,-6.2,-6.64,16.47
14:46:51.031,0.07,-0.0,0.01,-6.1,-6.31,15.85
14:46:51.038,0.1,0.01,0.0,-6.14,-6.04,14.94
14:46:51.045,0.1,-0.01,0.02,-6.05,-6.18,14.4
14:46:51.053,0.07,-0.01,0.01,-5.94,-5.78,14.47
14:46:51.060,0.1,0.02,0.01,-6.01,-5.56,14.31
14:46:51.067,0.08,0.01,-0.01,-6.18,-5.48,14.19
14:46:51.075,0.08,0.01,0.01,-6.16,-5.31,13.64
14:46:51.082,0.09,-0.01,0.01,-6.04,-5.28,12.89
14:46:51.089,0.08,0.0,0.02,-5.79,-5.11,12.7
14:46:51.096,0.07,0.01,0.02,-6.08,-4.92,12.46
14:46:51.104,0.05,-0.0,0.0,-6.16,-5.05,12.56
14:46:51.111,0.06,-0.01,-0.0,-5.87,-5.02,12.56
14:46:51.118,0.04,-0.01,0.01,-6.02,-5.1,12.57
14:46:51.126,0.06,-0.01,-0.01,-5.92,-5.09,12.33
14:46:51.133,0.04,-0.0,0.0,-3.98,-5.1,12.69
14:46:51.140,0.04,0.0,0.0,-6.04,-5.15,12.49
14:46:51.147,0.05,-0.0,0.0,-5.99,-5.14,12.61
14:46:51.155,0.05,-0.0,0.0,-6.05,-5.15,12.57
14:46:51.162,0.04,0.0,0.0,-6.09,-5.0,12.52
14:46:51.169,0.05,0.0,-0.01,-6.18,-5.02,12.54
14:46:51.176,0.07,-0.01,0.01,-6.11,-4.92,12.49
14:46:51.184,0.06,0.0,0.02,-6.02,-4.99,12.49
14:46:51.191,0.07,0.0,0.01,-6.01,-4.96,12.36
14:46:51.198,0.06,-0.03,0.02,-5.99,-5.07,12.61
14:46:51.206,0.02,-0.01,0.02,-6.08,-5.21,12.29
14:46:51.213,0.11,0.0,0.0,-5.93,-5.08,12.17
14:46:51.220,0.08,-0.0,0.01,-5.95,-4.92,11.9
14:46:51.227,0.09,-0.02,0.01,-7.82,-4.63,11.97
14:46:51.235,0.09,-0.01,0.01,-5.99,-4.49,11.72
14:46:51.242,0.09,0.0,0.0,-6.09,-4.6,11.57
14:46:51.249,0.1,-0.02,0.03,-6.01,-4.59,11.33
14:46:51.257,0.09,-0.0,0.01,-5.98,-4.82,12.99
14:46:51.264,0.11,-0.01,0.0,-5.72,-4.59,11.08
14:46:51.271,0.1,-0.0,0.0,-5.75,-4.45,10.88
14:46:51.278,0.1,-0.01,0.01,-5.81,-4.36,10.7
14:46:51.286,0.11,0.01,0.01,-5.82,-4.22,10.49
14:46:51.293,0.11,-0.0,0.0,-5.99,-4.09,10.13
14:46:51.300,0.11,-0.0,0.01,-5.66,-4.22,10.07
14:46:51.308,0.11,-0.0,0.02,-5.83,-4.07,10.11
14:46:51.315,0.12,-0.01,0.02,-5.77,-4.04,9.85
14:46:51.322,0.11,-0.01,0.0,-5.61,-3.87,9.61
14:46:51.329,0.11,-0.02,0.02,-5.76,-3.84,9.6
14:46:51.337,0.1,0.0,0.01,-5.58,-3.79,9.43
14:46:51.344,0.12,-0.0,0.02,-5.77,-3.49,9.16
14:46:51.351,0.13,-0.0,0.02,-5.69,-3.57,8.94
14:46:51.358,0.11,-0.0,0.02,-5.51,-3.51,8.68
14:46:51.366,0.11,-0.01,0.01,-5.56,-3.48,8.66
14:46:51.373,0.13,-0.01,0.01,-5.41,-3.19,8.52
14:46:51.380,0.11,-0.01,0.01,-5.39,-2.99,8.23
14:46:51.388,0.12,-0.0,0.01,-5.33,-2.83,8.1
14:46:51.395,0.12,0.0,0.01,-5.5,-2.74,7.84
14:46:51.402,0.12,-0.01,0.01,-5.45,-2.45,7.49
14:46:51.409,0.14,0.0,0.02,-5.35,-2.45,9.11
14:46:51.417,0.14,0.01,-0.0,-5.3,-2.48,7.04
14:46:51.424,0.15,-0.01,0.01,-5.17,-2.35,6.72
14:46:51.431,0.16,-0.01,0.01,-5.38,-2.48,6.36
14:46:51.439,0.15,-0.01,0.03,-5.18,-2.07,6.24
14:46:51.446,0.16,-0.02,0.01,-5.17,-2.06,5.87
14:46:51.453,0.16,-0.01,0.01,-5.18,-1.93,5.41
14:46:51.460,0.16,-0.02,0.02,-5.21,-1.8,5.26
14:46:51.468,0.15,-0.01,0.04,-5.08,-1.73,4.75
14:46:51.475,0.15,0.01,0.02,-5.19,-1.57,4.43
14:46:51.482,0.16,-0.02,0.02,-5.02,-1.35,4.08
14:46:51.490,0.16,-0.02,0.02,-5.14,-1.25,3.71
14:46:51.497,0.15,-0.01,0.02,-5.09,-1.23,3.2
14:46:51.504,0.17,-0.0,0.02,-4.99,-1.06,2.94
14:46:51.512,0.17,-0.01,0.01,-4.92,-0.87,2.74
14:46:51.519,0.16,-0.01,0.02,-4.78,-0.84,2.6
14:46:51.526,0.15,-0.01,0.02,-4.84,-0.62,1.89
14:46:51.534,0.16,-0.01,0.04,-4.75,-0.7,1.65
14:46:51.541,0.16,-0.01,0.01,-4.67,-0.36,1.57
14:46:51.548,0.16,0.01,0.0,-4.68,-0.31,0.86
14:46:51.556,0.17,-0.0,0.02,-4.5,0.14,0.57
14:46:51.563,0.16,-0.0,0.01,-4.71,-0.0,0.36
14:46:51.570,0.15,-0.01,0.02,-4.37,0.04,-0.08
14:46:51.577,0.16,-0.01,0.01,-4.51,0.33,-0.44
14:46:51.585,0.18,-0.01,0.02,-4.56,0.28,-0.8
14:46:51.592,0.16,-0.01,0.03,-4.7,0.61,-1.28
14:46:51.599,0.17,-0.01,0.02,-4.38,0.53,-1.31
14:46:51.607,0.16,-0.01,0.01,-4.31,0.76,-1.72
14:46:51.614,0.16,-0.0,0.01,-4.48,1.04,-1.99
14:46:51.621,0.17,-0.01,0.01,-4.32,0.79,-2.29
14:46:51.629,0.16,-0.01,-0.0,-4.18,1.13,-2.59
14:46:51.636,0.15,-0.02,0.01,-4.11,1.3,-2.79
14:46:51.643,0.16,-0.01,0.01,-4.23,1.23,-3.38
14:46:51.650,0.17,-0.01,0.02,-4.1,1.49,-3.69
14:46:51.658,0.17,-0.0,0.02,-3.87,1.81,-4.2
14:46:51.665,0.17,-0.01,0.01,-4.03,2.01,-4.71
14:46:51.672,0.17,-0.02,0.02,-5.86,2.12,-4.99
14:46:51.679,0.17,-0.01,0.03,-4.02,2.45,-5.53
14:46:51.687,0.17,-0.02,0.03,-3.83,2.33,-5.92
14:46:51.694,0.17,-0.01,0.01,-3.95,2.5,-6.47
14:46:51.701,0.17,-0.01,0.02,-3.65,2.83,-6.74
14:46:51.709,0.17,-0.01,0.0,-3.56,3.04,-7.0
14:46:51.716,0.16,-0.01,0.02,-3.67,3.08,-7.51
14:46:51.723,0.17,-0.01,0.01,-3.78,3.35,-8.16
14:46:51.730,0.15,-0.0,0.03,-3.63,3.38,-8.44
14:46:51.738,0.16,-0.01,0.01,-3.46,3.52,-8.9
14:46:51.745,0.17,-0.01,0.01,-3.51,3.81,-9.26
14:46:51.752,0.17,-0.02,0.02,-3.47,3.89,-10.01
14:46:51.760,0.17,-0.01,0.02,-3.24,4.04,-10.43
14:46:51.767,0.17,-0.01,0.02,-3.31,4.53,-10.96
14:46:51.774,0.17,-0.01,0.02,-3.11,4.55,-11.33
14:46:51.781,0.16,-0.01,0.01,-3.06,4.66,-11.73
14:46:51.789,0.15,-0.01,0.01,-3.06,4.98,-12.44
14:46:51.796,0.14,0.0,0.02,-3.18,4.94,-12.33
14:46:51.803,0.14,-0.01,0.01,-3.15,5.09,-12.85
14:46:51.811,0.13,-0.01,0.01,-3.05,5.31,-12.99
14:46:51.818,0.13,-0.01,0.03,-2.92,5.36,-13.48
14:46:51.825,0.12,-0.01,0.01,-2.96,5.62,-13.67
14:46:51.832,0.12,-0.0,-0.0,-2.99,5.62,-14.18
14:46:51.840,0.12,-0.01,0.0,-2.8,5.79,-14.26
14:46:51.847,0.12,-0.01,0.01,-2.77,5.91,-14.49
14:46:51.854,0.12,-0.01,0.0,-2.86,5.85,-14.88
14:46:51.862,0.11,-0.0,0.0,-2.76,5.72,-15.02
14:46:51.869,0.1,-0.01,-0.0,-2.78,5.84,-15.15
14:46:51.876,0.09,-0.01,0.01,-2.76,6.14,-15.44
14:46:51.883,0.09,-0.01,0.01,-2.63,6.01,-15.44
14:46:51.891,0.09,-0.01,-0.0,-2.77,6.31,-15.66
14:46:51.898,0.09,-0.0,0.02,-2.82,6.25,-15.8
14:46:51.905,0.07,-0.0,0.01,-2.72,6.23,-15.93
14:46:51.913,0.08,-0.01,0.0,-2.68,6.35,-16.05
14:46:51.920,0.07,-0.0,0.01,-2.68,6.43,-16.25
14:46:51.927,0.07,-0.01,0.0,-2.53,6.47,-18.02
14:46:51.934,0.07,-0.0,0.01,-2.68,6.41,-16.37
14:46:51.942,0.07,-0.01,0.01,-2.6,6.36,-16.44
14:46:51.949,0.07,-0.01,0.01,-2.86,6.28,-16.52
14:46:51.956,0.06,0.01,0.01,-2.64,6.37,-16.68
14:46:51.964,0.05,-0.0,0.0,-2.62,6.54,-16.9
14:46:51.971,0.04,-0.0,0.01,-2.48,6.31,-16.7
14:46:51.978,0.03,0.0,-0.0,-2.7,6.35,-16.73
14:46:51.985,0.02,0.0,0.01,-2.43,6.42,-16.52
14:46:51.993,0.01,0.0,-0.0,-2.61,6.35,-16.53
14:46:52.000,0.01,0.0,0.0,-2.57,6.25,-16.32
14:46:52.008,-0.01,0.02,-0.0,-2.85,6.2,-16.17
14:46:52.015,-0.02,0.04,0.0,-2.65,6.36,-15.86
14:46:52.022,-0.03,-0.0,0.01,-2.93,6.1,-15.58
14:46:52.029,-0.03,0.01,-0.01,-2.99,6.27,-15.31
14:46:52.037,-0.04,-0.02,-0.01,-2.92,5.61,-14.73
14:46:52.044,-0.04,0.0,-0.01,-2.71,5.51,-14.63
14:46:52.051,-0.05,-0.0,-0.02,-3.12,5.64,-14.16
14:46:52.059,-0.06,0.01,-0.02,-3.31,5.38,-13.82
14:46:52.066,-0.04,-0.01,-0.0,-3.17,5.27,-13.38
14:46:52.073,-0.03,-0.0,0.0,-3.02,5.48,-13.41
14:46:52.080,-0.03,0.01,-0.0,-3.18,5.45,-13.37
14:46:52.088,-0.02,0.0,0.01,-3.2,5.44,-12.85
14:46:52.095,-0.02,-0.0,0.0,-3.11,5.23,-12.83
14:46:52.102,-0.02,-0.01,-0.01,-3.05,5.03,-12.89
14:46:52.110,-0.02,0.0,-0.01,-3.35,5.11,-12.44
14:46:52.117,-0.04,-0.02,-0.01,-3.27,4.71,-14.29
14:46:52.124,-0.03,0.0,-0.0,-3.31,4.56,-12.16
14:46:52.131,-0.03,0.01,-0.0,-3.3,4.7,-11.88
14:46:52.139,-0.04,0.0,-0.0,-3.39,4.61,-11.87
14:46:52.146,-0.04,0.0,-0.01,-3.44,4.64,-11.86
14:46:52.153,-0.04,0.0,-0.0,-3.39,4.67,-11.48
14:46:52.161,-0.04,0.0,-0.01,-3.5,4.51,-11.38
14:46:52.168,-0.04,0.0,-0.0,-3.42,4.56,-11.29
14:46:52.175,-0.04,-0.0,-0.0,-3.36,4.39,-11.1
14:46:52.182,-0.05,0.02,-0.01,-3.42,4.41,-11.07
14:46:52.190,-0.04,0.0,0.0,-3.36,4.58,-11.16
14:46:52.197,-0.03,0.0,-0.01,-3.42,4.46,-11.0
14:46:52.204,-0.04,-0.0,-0.01,-3.63,4.81,-10.86
14:46:52.211,-0.04,-0.0,0.0,-3.52,4.32,-10.8
14:46:52.219,-0.04,-0.0,-0.0,-3.39,4.51,-10.62
14:46:52.226,-0.05,0.0,-0.01,-3.45,4.36,-10.53
14:46:52.233,-0.04,-0.0,-0.0,-3.49,4.19,-10.63
14:46:52.240,-0.04,-0.0,-0.01,-3.52,4.16,-10.54
14:46:52.247,-0.03,0.01,-0.02,-3.51,4.36,-10.56
14:46:52.255,-0.04,0.0,-0.0,-3.65,4.18,-10.48
14:46:52.262,-0.04,-0.0,-0.01,-3.51,4.5,-10.31
14:46:52.269,-0.04,0.0,0.0,-3.45,4.3,-10.35
14:46:52.277,-0.04,-0.0,-0.01,-3.65,4.26,-10.33
14:46:52.284,-0.04,-0.01,0.0,-3.76,4.23,-10.48
14:46:52.291,-0.03,-0.01,-0.01,-3.79,4.43,-10.39
14:46:52.298,-0.03,0.0,-0.01,-3.54,4.49,-10.43
14:46:52.306,-0.03,0.0,-0.01,-3.53,4.28,-10.6
14:46:52.313,-0.03,-0.0,-0.02,-3.64,4.52,-12.33
14:46:52.320,-0.04,-0.0,-0.01,-3.51,4.4,-10.44
14:46:52.328,-0.03,-0.0,0.01,-3.53,4.33,-10.46
14:46:52.335,-0.04,-0.0,-0.0,-3.44,4.28,-10.4
14:46:52.342,-0.04,-0.0,-0.02,-3.63,4.32,-10.57
14:46:52.349,-0.04,-0.0,-0.0,-3.62,4.16,-10.8
14:46:52.357,-0.05,-0.01,-0.02,-3.53,4.56,-10.69
14:46:52.364,-0.05,0.0,0.0,-3.56,4.46,-10.87
14:46:52.371,-0.04,0.0,0.01,-3.54,4.46,-10.93
14:46:52.379,-0.06,0.0,-0.0,-3.55,4.4,-10.83
14:46:52.386,-0.06,0.0,0.0,-3.53,4.36,-10.96
14:46:52.393,-0.06,-0.0,-0.01,-3.49,4.36,-10.89
14:46:52.400,-0.07,0.01,-0.02,-3.63,4.33,-10.83
14:46:52.408,-0.07,-0.0,-0.01,-3.65,4.3,-10.89
14:46:52.415,-0.09,-0.0,-0.02,-3.67,4.21,-10.71
14:46:52.422,-0.08,-0.01,-0.01,-3.52,6.02,-10.83
14:46:52.430,-0.08,0.0,-0.01,-3.63,6.04,-10.5
14:46:52.437,-0.1,0.0,-0.01,-3.63,4.22,-10.38
14:46:52.444,-0.09,0.0,-0.0,-3.67,4.11,-10.19
14:46:52.451,-0.09,-0.0,-0.01,-3.63,6.03,-10.13
14:46:52.459,-0.09,0.0,-0.01,-3.86,4.01,-9.78
14:46:52.466,-0.11,-0.0,-0.02,-3.78,3.88,-9.49
14:46:52.473,-0.09,-0.01,-0.03,-3.66,3.52,-9.4
14:46:52.481,-0.11,-0.01,-0.0,-3.76,3.54,-9.09
14:46:52.488,-0.11,-0.0,-0.01,-3.66,3.34,-8.84
14:46:52.496,-0.13,-0.0,-0.01,-4.01,3.2,-8.33
14:46:52.503,-0.12,-0.01,-0.01,-3.73,3.05,-8.19
14:46:52.510,-0.13,-0.0,-0.01,-3.8,2.94,-7.83
14:46:52.518,-0.13,0.0,-0.01,-3.77,2.79,-7.52
14:46:52.525,-0.11,-0.0,-0.03,-4.18,2.8,-6.96
14:46:52.532,-0.15,-0.01,-0.0,-3.9,2.53,-6.67
14:46:52.539,-0.13,0.01,-0.01,-4.03,2.17,-8.37
14:46:52.547,-0.12,-0.0,-0.01,-4.03,2.11,-6.18
14:46:52.554,-0.15,-0.01,-0.02,-4.11,2.2,-5.82
14:46:52.561,-0.14,0.0,-0.02,-4.07,1.81,-5.42
14:46:52.569,-0.15,-0.0,-0.01,-4.1,1.65,-4.93
14:46:52.576,-0.16,-0.0,-0.02,-4.08,1.41,-4.3
14:46:52.583,-0.15,-0.0,-0.01,-4.31,0.99,-3.86
14:46:52.591,-0.17,-0.0,-0.02,-4.24,0.91,-3.22
14:46:52.598,-0.17,-0.0,-0.02,-4.37,0.77,-4.51
14:46:52.605,-0.18,0.0,-0.01,-4.38,0.55,-1.96
14:46:52.612,-0.18,-0.0,-0.02,-4.35,0.07,-1.41
14:46:52.620,-0.19,0.0,-0.03,-4.4,0.04,-0.74
14:46:52.627,-0.19,-0.0,-0.0,-4.62,-0.51,-0.16
14:46:52.634,-0.19,-0.0,-0.02,-4.78,-0.64,0.44
14:46:52.641,-0.19,-0.0,-0.02,-4.76,-0.68,1.18
14:46:52.649,-0.19,-0.0,-0.01,-4.76,-0.89,1.94
14:46:52.656,-0.19,-0.0,-0.02,-4.63,-1.12,2.22
14:46:52.663,-0.19,0.01,-0.02,-4.8,-1.38,2.85
14:46:52.671,-0.17,-0.0,-0.0,-4.79,-1.42,3.32
14:46:52.678,-0.17,0.0,-0.01,-5.07,-1.5,3.91
14:46:52.685,-0.16,-0.0,-0.01,-5.06,-1.94,4.33
14:46:52.692,-0.16,0.01,-0.03,-4.95,-1.97,4.68
14:46:52.700,-0.16,-0.0,-0.02,-5.05,-2.07,5.11
14:46:52.707,-0.14,0.0,-0.03,-5.17,-2.45,5.53
14:46:52.714,-0.14,0.0,-0.02,-5.05,-2.49,5.92
14:46:52.722,-0.15,-0.0,-0.01,-5.16,-2.48,6.33
14:46:52.729,-0.12,-0.0,-0.02,-4.95,-2.79,6.56
14:46:52.736,-0.14,0.0,-0.01,-5.21,-2.89,6.99
14:46:52.743,-0.14,-0.01,-0.01,-5.03,-2.94,7.45
14:46:52.751,-0.15,0.0,-0.0,-5.18,-3.17,7.78
14:46:52.758,-0.13,-0.0,-0.01,-5.19,-3.47,8.06
14:46:52.765,-0.13,-0.0,-0.01,-5.21,-3.37,8.6
14:46:52.773,-0.14,-0.0,-0.02,-5.29,-3.37,8.92
14:46:52.780,-0.14,-0.01,-0.02,-5.56,-3.57,9.09
14:46:52.787,-0.13,0.01,-0.01,-5.33,-3.63,9.57
14:46:52.794,-0.14,-0.0,-0.01,-5.53,-3.77,9.77
14:46:52.802,-0.11,0.0,-0.01,-5.27,-3.93,9.99
14:46:52.809,-0.11,0.0,-0.01,-5.41,-3.9,10.43
14:46:52.816,-0.1,0.0,-0.01,-5.46,-4.1,10.57
14:46:52.824,-0.11,0.0,-0.02,-5.56,-4.08,10.99
14:46:52.831,-0.09,-0.0,-0.01,-5.5,-4.24,11.2
14:46:52.838,-0.1,-0.01,-0.0,-5.6,-4.59,11.5
14:46:52.845,-0.1,-0.01,-0.02,-5.49,-4.83,11.92
14:46:52.853,-0.11,-0.0,-0.01,-5.76,-4.9,12.14
14:46:52.860,-0.1,-0.0,-0.01,-5.8,-4.93,12.37
14:46:52.867,-0.1,0.0,-0.01,-5.7,-5.07,12.61
14:46:52.875,-0.1,-0.01,-0.0,-5.56,-5.04,12.74
14:46:52.882,-0.09,0.0,-0.01,-5.71,-5.16,12.96
14:46:52.889,-0.1,-0.0,-0.01,-5.66,-5.45,13.3
14:46:52.896,-0.1,-0.0,-0.01,-5.63,-5.45,13.77
14:46:52.904,-0.09,0.0,-0.02,-5.88,-5.53,13.72
14:46:52.911,-0.08,0.0,-0.01,-7.82,-5.49,13.85
14:46:52.918,-0.08,-0.01,0.01,-7.76,-5.72,14.04
14:46:52.926,-0.09,-0.0,-0.01,-5.92,-5.74,14.34
14:46:52.933,-0.08,-0.0,-0.01,-6.05,-5.78,14.69
14:46:52.940,-0.07,0.0,-0.01,-5.99,-5.55,14.58
14:46:52.947,-0.07,-0.0,-0.0,-5.89,-5.79,15.01
14:46:52.955,-0.06,-0.0,-0.01,-5.93,-5.61,14.89
14:46:52.962,-0.05,-0.0,-0.01,-5.92,-5.9,14.83
14:46:52.969,-0.05,0.0,0.0,-5.79,-5.8,14.95
14:46:52.977,-0.03,-0.01,-0.01,-5.98,-5.96,15.17
14:46:52.984,-0.05,-0.0,-0.01,-5.91,-6.24,15.22
14:46:52.991,-0.04,-0.0,-0.01,-6.2,-5.93,15.43
14:46:52.999,-0.03,0.0,-0.01,-6.1,-6.01,15.33
14:46:53.006,-0.03,0.01,-0.0,-6.11,-6.31,15.29
14:46:53.013,-0.04,-0.0,0.0,-6.07,-6.04,15.47
14:46:53.020,-0.03,0.0,0.0,-6.05,-6.05,15.57
14:46:53.028,-0.03,-0.0,-0.01,-6.09,-6.18,15.43
14:46:53.035,-0.02,0.0,-0.01,-6.03,-6.09,15.59
14:46:53.042,-0.01,0.0,-0.01,-6.31,-6.03,15.59
14:46:53.049,-0.01,-0.0,-0.0,-6.02,-6.22,15.47
14:46:53.057,-0.01,-0.0,-0.0,-6.14,-6.22,15.66
14:46:53.064,-0.01,0.01,0.01,-6.05,-6.1,15.72
14:46:53.071,-0.0,0.0,0.0,-6.1,-6.19,15.33
14:46:53.079,0.0,0.0,0.0,-6.13,-6.02,15.51
14:46:53.086,0.01,-0.0,0.0,-6.16,-6.15,15.48
14:46:53.093,-0.02,-0.01,0.01,-7.79,-6.2,15.7
14:46:53.100,0.02,0.0,0.01,-6.17,-6.38,15.33
14:46:53.108,0.01,0.0,0.0,-5.98,-6.26,15.22
14:46:53.115,0.02,0.0,0.01,-6.11,-6.29,15.28
14:46:53.122,0.01,0.01,0.01,-5.9,-6.02,14.9
14:46:53.129,0.03,-0.0,0.01,-5.93,-5.83,14.8
14:46:53.137,0.03,0.0,0.0,-6.02,-5.76,14.82
14:46:53.144,0.04,0.04,-0.03,-6.0,-5.74,14.65
14:46:53.151,0.06,-0.01,-0.01,-6.04,-5.48,14.3
14:46:53.159,0.07,-0.03,0.02,-7.81,-5.46,13.75
14:46:53.166,0.09,0.02,-0.0,-5.74,-5.29,13.03
14:46:53.173,0.12,0.01,0.01,-5.98,-5.24,12.33
14:46:53.180,0.12,-0.0,0.02,-5.7,-4.8,11.82
14:46:53.188,0.09,-0.0,-0.0,-5.66,-4.7,11.43
14:46:53.195,0.09,-0.0,-0.01,-5.74,-4.56,11.27
14:46:53.202,0.09,0.0,0.01,-5.83,-4.48,11.04
14:46:53.209,0.07,0.01,0.01,-6.01,-4.35,10.96
14:46:53.217,0.07,0.01,0.02,-5.71,-4.15,10.56
14:46:53.224,0.06,-0.0,0.01,-5.69,-4.21,10.3
14:46:53.231,0.07,-0.0,0.0,-5.79,-4.29,10.46
14:46:53.238,0.05,0.01,0.02,-5.57,-4.34,10.43
14:46:53.246,0.04,0.0,-0.02,-5.54,-4.21,10.24
14:46:53.253,0.04,-0.0,0.01,-5.86,-4.22,10.46
14:46:53.261,0.05,0.0,0.0,-5.91,-4.19,10.41
14:46:53.268,0.03,0.0,0.0,-5.73,-4.22,10.49
14:46:53.275,0.03,0.0,0.0,-7.77,-4.26,10.36
14:46:53.282,0.03,-0.0,0.01,-5.67,-4.4,10.53
14:46:53.290,0.04,-0.01,-0.01,-5.82,-4.29,10.49
14:46:53.297,0.04,0.01,0.01,-5.9,-4.33,10.76
14:46:53.304,0.05,-0.0,0.01,-5.76,-4.34,10.56
14:46:53.312,0.06,-0.01,0.0,-5.71,-4.39,10.56
14:46:53.319,0.05,-0.0,0.02,-5.69,-4.38,10.73
14:46:53.326,0.06,-0.01,0.01,-5.69,-4.38,10.62
14:46:53.333,0.07,-0.0,-0.02,-5.82,-4.26,10.42
14:46:53.341,0.07,-0.0,0.01,-5.75,-4.28,10.14
14:46:53.348,0.1,0.0,0.0,-5.72,-3.96,9.84
14:46:53.355,0.1,-0.0,0.01,-5.54,-3.71,9.59
14:46:53.362,0.1,-0.0,0.02,-5.57,-3.75,9.23
14:46:53.370,0.11,-0.01,0.01,-5.6,-3.42,8.7
14:46:53.377,0.12,-0.01,0.01,-5.6,-3.09,8.36
14:46:53.384,0.12,-0.01,0.02,-5.5,-2.83,7.98
14:46:53.392,0.13,-0.01,0.02,-5.31,-2.77,7.55
14:46:53.399,0.13,-0.0,0.02,-5.29,-2.58,7.1
14:46:53.406,0.13,-0.0,0.02,-5.15,-2.13,6.54
14:46:53.413,0.13,-0.01,0.02,-5.31,-2.21,5.91
14:46:53.421,0.14,-0.01,0.02,-5.32,-1.93,5.5
14:46:53.428,0.13,-0.0,0.02,-5.18,-1.62,7.15
14:46:53.435,0.14,-0.0,-0.0,-5.15,-1.57,4.5
14:46:53.442,0.14,-0.01,0.02,-4.98,-1.31,4.07
14:46:53.450,0.13,-0.01,0.01,-4.82,-1.11,3.71
14:46:53.457,0.13,-0.01,0.0,-5.1,-0.9,3.49
14:46:53.464,0.14,-0.01,0.01,-5.08,-0.76,2.96
14:46:53.471,0.13,-0.0,0.01,-4.66,-0.85,2.58
14:46:53.479,0.14,-0.0,0.02,-4.81,-0.72,2.32
14:46:53.486,0.12,-0.01,0.02,-4.71,-0.67,1.96
14:46:53.493,0.12,-0.01,0.01,-4.91,-0.61,1.69
14:46:53.501,0.11,-0.0,0.01,-4.57,-0.64,1.51
14:46:53.508,0.12,-0.0,0.01,-4.6,-0.28,1.16
14:46:53.516,0.13,-0.01,0.0,-4.79,-0.2,0.85
14:46:53.523,0.12,-0.01,0.01,-4.64,0.01,0.56
14:46:53.530,0.12,-0.02,0.0,-4.67,0.04,0.14
14:46:53.537,0.12,-0.01,-0.0,-4.48,0.2,-0.09
14:46:53.545,0.12,-0.0,0.01,-4.47,0.34,-0.46
14:46:53.552,0.13,-0.01,0.03,-4.42,0.54,-0.86
14:46:53.559,0.13,-0.0,0.0,-4.55,0.87,-1.13
14:46:53.566,0.13,-0.01,0.01,-4.48,0.72,-1.62
14:46:53.574,0.14,-0.0,-0.0,-4.29,0.9,-2.36
14:46:53.581,0.14,-0.0,0.01,-4.31,1.2,-4.53
14:46:53.588,0.14,-0.0,0.02,-4.34,1.51,-3.21
14:46:53.596,0.14,0.01,0.01,-4.14,1.81,-3.47
14:46:53.603,0.14,-0.01,0.01,-4.26,1.94,-3.87
14:46:53.610,0.14,-0.0,0.01,-4.11,1.76,-4.46
14:46:53.617,0.14,-0.01,0.03,-3.93,4.09,-4.78
14:46:53.625,0.14,-0.01,0.02,-4.02,2.22,-5.41
14:46:53.632,0.13,-0.0,-0.0,-3.88,2.44,-5.72
14:46:53.639,0.14,-0.01,0.0,-3.76,2.68,-6.38
14:46:53.647,0.13,-0.0,0.01,-3.68,2.61,-6.59
14:46:53.654,0.13,-0.0,0.01,-5.83,2.81,-7.18
14:46:53.661,0.12,-0.0,-0.0,-3.46,3.14,-7.47
14:46:53.668,0.13,-0.0,0.01,-3.49,3.3,-7.92
14:46:53.676,0.12,-0.0,-0.0,-3.53,3.18,-8.36
14:46:53.683,0.12,-0.0,0.01,-3.44,3.46,-8.76
14:46:53.690,0.12,-0.01,0.01,-3.49,3.68,-9.02
14:46:53.698,0.12,-0.02,0.02,-3.34,3.87,-9.44
14:46:53.705,0.11,-0.01,0.01,-3.31,3.97,-9.96
14:46:53.712,0.12,0.01,0.02,-3.36,4.4,-8.45
14:46:53.720,0.12,-0.01,0.03,-3.27,4.36,-10.95
14:46:53.727,0.11,-0.01,0.01,-3.06,4.59,-11.05
14:46:53.734,0.1,-0.0,0.0,-3.13,4.65,-11.77
14:46:53.741,0.11,-0.01,0.01,-3.08,4.75,-12.18
14:46:53.749,0.1,-0.01,0.02,-3.19,4.98,-12.52
14:46:53.756,0.11,-0.01,-0.0,-3.14,5.05,-12.81
14:46:53.763,0.1,0.0,0.01,-3.13,5.24,-13.22
14:46:53.770,0.1,-0.01,0.01,-2.72,5.31,-13.6
14:46:53.778,0.1,-0.0,0.01,-2.88,5.34,-13.69
14:46:53.785,0.09,-0.01,0.02,-2.89,5.4,-14.05
14:46:53.792,0.09,0.0,0.01,-2.82,5.58,-14.41
14:46:53.800,0.07,0.01,0.0,-2.89,5.78,-14.57
14:46:53.807,0.08,-0.0,0.01,-2.79,5.94,-14.8
14:46:53.814,0.06,-0.01,0.01,-2.76,5.84,-15.21
14:46:53.821,0.05,0.0,0.01,-2.6,6.12,-15.34
14:46:53.829,0.05,0.01,0.03,-2.71,5.98,-15.53
14:46:53.836,0.02,0.02,-0.0,-2.89,6.19,-15.39
14:46:53.843,0.01,0.0,0.03,-2.79,5.97,-15.27
14:46:53.851,-0.01,0.02,-0.01,-2.97,8.01,-15.15
14:46:53.858,-0.01,0.01,0.0,-2.92,5.66,-14.81
14:46:53.865,-0.02,-0.02,-0.01,-3.03,5.33,-14.52
14:46:53.872,-0.02,-0.0,-0.0,-3.05,5.14,-14.06
14:46:53.880,-0.03,-0.0,-0.01,-3.35,5.17,-13.81
14:46:53.887,-0.05,0.01,-0.02,-3.17,5.04,-13.54
14:46:53.894,-0.02,-0.01,-0.0,-3.0,5.08,-13.43
14:46:53.901,-0.02,-0.0,-0.01,-3.23,5.01,-13.43
14:46:53.909,-0.02,0.0,0.0,-3.28,5.3,-13.22
14:46:53.916,-0.0,0.0,-0.0,-3.14,5.07,-13.28
14:46:53.923,-0.0,0.0,0.01,-3.02,5.13,-13.11
14:46:53.931,-0.0,-0.0,-0.02,-3.27,5.33,-13.06
14:46:53.938,-0.0,-0.01,-0.01,-3.37,5.07,-13.2
14:46:53.945,-0.01,-0.0,-0.01,-3.08,5.17,-13.42
14:46:53.952,-0.0,-0.0,0.01,-3.24,4.98,-13.41
14:46:53.960,0.01,0.0,0.0,-3.13,5.14,-13.16
14:46:53.967,0.0,-0.0,-0.01,-3.16,5.32,-13.4
14:46:53.974,0.0,0.0,-0.01,-3.25,5.41,-13.62
14:46:53.981,0.01,-0.0,0.0,-3.22,5.27,-13.52
14:46:53.989,-0.01,-0.0,-0.02,-3.2,5.27,-13.69
14:46:53.996,-0.01,-0.0,0.0,-3.44,5.4,-13.9
14:46:54.003,-0.02,0.0,-0.01,-3.3,5.48,-13.67
14:46:54.011,-0.02,-0.01,-0.02,-3.28,5.1,-13.64
14:46:54.018,-0.03,-0.0,0.0,-3.35,5.16,-13.66
14:46:54.025,-0.04,0.0,0.01,-3.23,5.23,-13.67
14:46:54.032,-0.03,0.0,-0.0,-3.18,5.21,-13.51
14:46:54.040,-0.04,0.01,-0.0,-3.24,5.17,-13.51
14:46:54.047,-0.05,0.0,-0.02,-3.24,5.38,-13.31
14:46:54.054,-0.05,0.0,-0.01,-3.29,5.3,-13.29
14:46:54.062,-0.05,0.0,-0.0,-3.2,5.49,-13.41
14:46:54.069,-0.05,-0.0,-0.0,-3.32,5.25,-13.18
14:46:54.076,-0.05,0.01,-0.0,-3.43,5.46,-13.14
14:46:54.083,-0.06,-0.0,-0.01,-3.23,5.21,-13.12
14:46:54.091,-0.04,0.0,0.01,-3.29,5.38,-13.08
14:46:54.098,-0.05,-0.0,-0.01,-3.1,5.39,-12.66
14:46:54.105,-0.06,-0.0,-0.0,-3.44,5.47,-12.82
14:46:54.112,-0.04,0.01,-0.02,-3.3,5.65,-12.95
14:46:54.120,-0.04,0.01,-0.01,-3.34,5.53,-12.96
14:46:54.127,-0.04,-0.0,0.0,-3.47,5.53,-12.95
14:46:54.134,-0.04,-0.02,-0.01,-3.25,5.26,-12.74
14:46:54.142,-0.04,-0.0,-0.02,-3.56,5.37,-12.8
14:46:54.149,-0.04,0.0,-0.01,-3.44,5.26,-12.99
14:46:54.156,-0.05,0.0,-0.01,-3.4,5.23,-12.99
14:46:54.163,-0.05,-0.01,-0.0,-3.4,5.3,-13.01
14:46:54.171,-0.05,-0.0,-0.0,-3.51,5.26,-13.06
14:46:54.178,-0.07,0.0,0.0,-3.52,5.43,-13.26
14:46:54.185,-0.05,0.0,-0.0,-3.36,5.48,-13.33
14:46:54.193,-0.05,-0.01,-0.0,-3.28,5.52,-13.66
14:46:54.200,-0.03,-0.01,-0.0,-3.18,5.84,-13.63
14:46:54.207,-0.04,0.01,-0.02,-3.24,5.96,-14.12
14:46:54.214,-0.04,0.01,-0.01,-3.39,4.11,-14.24
14:46:54.222,-0.05,-0.01,0.01,-3.4,5.98,-14.29
14:46:54.229,-0.05,-0.0,-0.01,-3.11,5.8,-14.21
14:46:54.236,-0.04,-0.0,-0.0,-3.28,6.0,-14.71
14:46:54.244,-0.06,-0.01,-0.01,-3.27,5.75,-14.64
14:46:54.251,-0.06,-0.01,-0.01,-3.08,6.05,-14.7
14:46:54.258,-0.06,0.01,-0.01,-3.14,6.04,-14.84
14:46:54.265,-0.07,0.01,-0.01,-3.3,5.81,-14.79
14:46:54.273,-0.08,-0.0,-0.0,-3.34,5.81,-14.86
14:46:54.280,-0.1,-0.0,-0.01,-3.2,5.76,-14.83
14:46:54.287,-0.11,0.0,-0.01,-3.18,5.52,-12.38
14:46:54.294,-0.12,-0.01,-0.02,-3.33,5.3,-14.25
14:46:54.302,-0.12,-0.0,-0.01,-3.24,5.34,-13.96
14:46:54.309,-0.14,-0.01,-0.02,-3.26,5.1,-13.62
14:46:54.316,-0.17,-0.0,-0.0,-3.37,4.83,-13.27
14:46:54.324,-0.14,0.0,-0.02,-3.5,5.06,-12.74
14:46:54.331,-0.15,-0.01,-0.02,-3.46,4.56,-12.54
14:46:54.338,-0.16,0.0,-0.03,-3.64,4.72,-12.17
14:46:54.345,-0.16,-0.0,-0.0,-3.53,4.31,-11.72
14:46:54.353,-0.16,-0.0,-0.02,-3.55,4.33,-11.35
14:46:54.360,-0.17,0.0,-0.02,-3.74,4.1,-10.81
14:46:54.367,-0.17,-0.0,-0.0,-3.64,4.07,-10.6
14:46:54.374,-0.17,-0.0,-0.02,-3.7,3.86,-12.29
14:46:54.382,-0.17,-0.0,-0.02,-3.61,3.72,-9.99
14:46:54.389,-0.19,-0.0,-0.01,-3.81,3.6,-9.57
14:46:54.396,-0.17,-0.01,-0.02,-3.76,3.49,-9.21
14:46:54.404,-0.16,0.01,-0.02,-3.79,3.32,-8.7
14:46:54.411,-0.16,-0.01,-0.01,-3.63,3.33,-8.57
14:46:54.418,-0.17,-0.01,-0.02,-3.85,3.05,-8.29
14:46:54.425,-0.18,0.0,-0.02,-2.0,3.0,-7.88
14:46:54.433,-0.16,-0.0,-0.01,-3.82,2.91,-7.57
14:46:54.440,-0.16,-0.01,-0.02,-3.85,2.8,-7.31
14:46:54.447,-0.15,0.0,-0.01,-3.76,2.75,-7.2
14:46:54.454,-0.17,-0.02,-0.02,-4.05,2.49,-6.72
14:46:54.462,-0.17,0.01,-0.02,-4.03,4.1,-4.58
14:46:54.469,-0.19,0.0,-0.01,-3.94,1.91,-5.93
14:46:54.476,-0.18,-0.0,-0.02,-4.08,1.65,-5.43
14:46:54.484,-0.19,-0.0,-0.01,-4.18,1.55,-4.82
14:46:54.491,-0.19,-0.0,-0.0,-4.16,1.18,-4.31
14:46:54.498,-0.19,-0.0,-0.06,-3.79,1.01,-4.32
14:46:54.506,-0.18,0.01,-0.05,-3.86,0.8,-4.69
14:46:54.513,-0.18,-0.0,-0.07,-4.12,0.47,-4.49
14:46:54.520,-0.17,-0.0,-0.04,-4.03,0.17,-4.46
14:46:54.528,-0.18,-0.01,-0.05,-4.0,0.07,-3.89
14:46:54.535,-0.21,0.0,-0.02,-4.39,-0.23,-2.65
14:46:54.543,-0.24,0.0,-0.01,-4.37,-0.51,-1.41
14:46:54.550,-0.25,-0.01,0.0,-4.42,-0.64,-0.69
14:46:54.557,-0.24,-0.02,-0.0,-4.43,-0.76,-0.13
14:46:54.564,-0.25,-0.01,0.0,-4.67,-0.86,0.77
14:46:54.572,-0.24,-0.01,0.0,-4.49,-0.7,1.26
14:46:54.579,-0.23,0.01,0.01,-4.69,-0.7,2.06
14:46:54.586,-0.24,-0.0,-0.01,-4.8,-0.81,2.62
14:46:54.593,-0.22,-0.0,-0.02,-4.84,-0.91,2.7
14:46:54.601,-0.21,-0.01,-0.03,-4.9,-1.18,5.22
14:46:54.608,-0.21,-0.0,-0.02,-4.79,-1.15,3.97
14:46:54.615,-0.2,-0.01,-0.01,-4.94,-1.42,4.34
14:46:54.623,-0.19,0.0,-0.02,-4.99,-1.65,4.79
14:46:54.630,-0.19,-0.0,-0.02,-5.0,-1.96,5.2
14:46:54.637,-0.19,-0.0,-0.03,-5.21,-2.0,5.47
14:46:54.644,-0.17,-0.0,-0.02,-5.2,-2.46,6.11
14:46:54.652,-0.18,0.0,-0.02,-4.96,-2.45,6.46
14:46:54.659,-0.18,-0.01,-0.01,-5.12,-2.79,6.7
14:46:54.666,-0.17,0.01,-0.01,-5.19,-2.77,7.05
14:46:54.674,-0.17,-0.01,-0.03,-5.11,-2.71,7.39
14:46:54.681,-0.16,-0.0,-0.03,-5.37,-2.96,7.37
14:46:54.688,-0.18,-0.0,-0.03,-5.22,-3.07,7.85
14:46:54.695,-0.17,0.0,-0.02,-5.24,-3.03,7.96
14:46:54.703,-0.18,-0.0,-0.02,-5.31,-3.2,8.18
14:46:54.710,-0.15,0.0,-0.0,-5.26,-3.09,8.49
14:46:54.717,-0.17,-0.01,-0.02,-5.27,-3.29,8.64
14:46:54.724,-0.16,-0.0,-0.02,-5.21,-3.6,9.03
14:46:54.732,-0.16,-0.0,-0.02,-5.64,-1.82,9.28
14:46:54.739,-0.16,-0.01,-0.01,-5.34,-3.82,9.71
14:46:54.746,-0.16,-0.0,-0.02,-5.28,-4.03,10.2
14:46:54.754,-0.16,-0.01,-0.02,-5.47,-4.25,10.53
14:46:54.761,-0.16,-0.01,-0.02,-5.44,-4.37,10.82
14:46:54.768,-0.16,-0.01,-0.02,-5.5,-4.41,11.06
14:46:54.775,-0.16,-0.0,-0.02,-5.43,-4.71,11.56
14:46:54.783,-0.16,-0.0,-0.01,-5.51,-4.93,11.82
14:46:54.790,-0.16,-0.0,-0.01,-5.69,-4.93,12.15
14:46:54.797,-0.15,0.0,-0.02,-5.61,-4.94,12.65
14:46:54.805,-0.16,-0.0,-0.02,-5.79,-5.1,12.94
14:46:54.812,-0.15,-0.0,-0.0,-5.95,-5.32,13.39
14:46:54.819,-0.15,-0.0,-0.01,-5.67,-5.45,13.62
14:46:54.826,-0.15,-0.0,-0.02,-5.77,-5.49,14.02
14:46:54.834,-0.14,-0.01,-0.01,-5.66,-3.73,14.19
14:46:54.841,-0.13,-0.01,-0.01,-5.76,-5.76,14.46
14:46:54.848,-0.12,-0.0,-0.02,-5.82,-6.06,14.85
14:46:54.856,-0.13,0.0,-0.02,-5.75,-5.98,15.16
14:46:54.863,-0.13,-0.0,-0.0,-6.09,-6.16,15.44
14:46:54.870,-0.12,0.0,-0.03,-5.9,-6.25,15.69
14:46:54.877,-0.12,-0.0,-0.01,-6.01,-6.54,15.8
14:46:54.885,-0.12,-0.0,-0.0,-6.02,-6.38,16.06
14:46:54.892,-0.11,-0.0,-0.02,-5.93,-6.47,16.23
14:46:54.899,-0.11,-0.0,-0.01,-6.05,-6.57,16.58
14:46:54.907,-0.11,0.0,-0.01,-6.05,-6.64,16.86
14:46:54.914,-0.11,-0.0,-0.01,-6.04,-6.77,17.01
14:46:54.921,-0.11,-0.01,-0.01,-6.09,-6.99,17.32
14:46:54.928,-0.11,-0.0,-0.01,-6.11,-7.02,17.59
14:46:54.936,-0.11,0.0,-0.01,-6.23,-7.2,17.82
14:46:54.943,-0.11,-0.0,-0.01,-6.18,-7.15,18.14
14:46:54.950,-0.1,-0.0,-0.01,-6.3,-7.43,18.37
14:46:54.958,-0.09,-0.01,-0.01,-6.25,-7.67,18.68
14:46:54.965,-0.09,-0.0,-0.01,-6.17,-7.4,18.8
14:46:54.972,-0.08,-0.0,-0.01,-6.25,-7.53,18.64
14:46:54.979,-0.09,-0.0,-0.01,-6.32,-7.57,18.94
14:46:54.987,-0.06,-0.0,-0.01,-6.26,-5.67,19.15
14:46:54.994,-0.05,-0.01,-0.01,-6.25,-7.35,20.85
14:46:55.001,-0.05,-0.01,-0.01,-6.24,-7.4,18.78
14:46:55.009,-0.03,-0.0,-0.01,-6.31,-7.37,18.82
14:46:55.016,-0.03,-0.0,-0.01,-6.27,-7.24,18.64
14:46:55.023,-0.02,-0.01,-0.0,-6.4,-7.06,18.46
14:46:55.030,-0.02,-0.0,-0.01,-6.22,-6.9,18.49
14:46:55.038,-0.02,-0.01,-0.02,-6.08,-6.94,18.26
14:46:55.045,-0.01,0.0,-0.0,-6.26,-7.02,18.11
14:46:55.052,-0.0,-0.01,-0.01,-6.4,-6.9,17.83
14:46:55.059,-0.0,-0.0,-0.01,-6.24,-6.99,17.85
14:46:55.067,0.01,-0.01,0.0,-6.43,-6.39,17.56
14:46:55.074,0.01,0.01,-0.01,-6.24,-6.6,17.2
14:46:55.081,0.02,-0.01,-0.01,-6.24,-6.28,17.1
14:46:55.089,0.02,-0.01,-0.0,-6.28,-6.66,17.15
14:46:55.096,0.03,0.0,0.0,-6.23,-6.35,16.83
14:46:55.103,0.02,-0.01,-0.0,-6.24,-6.52,16.6
14:46:55.110,0.03,-0.0,0.01,-6.15,-6.4,16.62
14:46:55.118,0.03,-0.01,0.01,-6.15,-6.38,16.35
14:46:55.125,0.02,0.0,0.01,-6.24,-6.54,16.04
14:46:55.132,0.04,0.01,0.01,-6.04,-6.39,15.78
14:46:55.140,0.04,0.0,0.01,-6.08,-6.15,15.62
14:46:55.147,0.04,-0.0,0.0,-5.91,-5.98,15.28
14:46:55.154,0.05,0.0,0.01,-6.22,-5.93,14.92
14:46:55.161,0.04,0.01,0.01,-5.79,-5.92,14.62
14:46:55.169,0.04,0.01,-0.0,-5.79,-5.57,14.59
14:46:55.176,0.04,0.01,-0.01,-5.97,-3.73,14.27
14:46:55.183,0.07,0.01,-0.02,-5.96,-5.34,13.73
14:46:55.190,0.08,-0.01,0.0,-3.97,-5.14,13.4
14:46:55.198,0.09,0.0,0.01,-5.93,-4.99,12.72
14:46:55.205,0.11,0.0,0.03,-5.85,-4.7,12.01
14:46:55.212,0.11,0.0,0.01,-5.73,-4.56,13.02
14:46:55.220,0.13,-0.0,0.0,-5.44,-4.28,10.3
14:46:55.227,0.09,-0.01,0.0,-5.63,-4.22,10.2
14:46:55.234,0.1,0.0,-0.0,-5.66,-3.83,9.81
14:46:55.241,0.1,0.01,0.01,-5.85,-3.77,9.46
14:46:55.249,0.06,-0.0,0.02,-5.71,-5.65,11.01
14:46:55.256,0.09,-0.0,0.02,-5.47,-3.53,8.64
14:46:55.263,0.09,0.01,0.0,-5.5,-3.21,8.41
14:46:55.270,0.04,-0.0,0.01,-5.53,-3.44,8.43
14:46:55.278,0.07,-0.01,0.0,-5.44,-3.26,8.37
