timestamp,acc_x,acc_y,acc_z,gyr_x,gyr_y,gyr_z
14:38:37.996,0.01,0.0,-0.0,-4.44,-0.01,0.12
14:38:38.004,0.0,-0.0,-0.01,-4.46,0.07,0.17
14:38:38.011,0.0,0.01,0.0,-4.44,0.07,-0.03
14:38:38.018,0.01,0.01,-0.0,-4.56,0.25,0.26
14:38:38.026,0.0,0.0,0.01,-4.53,0.02,0.07
14:38:38.033,0.01,0.0,-0.02,-4.45,0.0,0.07
14:38:38.040,0.0,0.0,0.01,-4.5,0.0,0.04
14:38:38.048,-0.0,0.0,0.0,-4.48,0.1,0.07
14:38:38.055,0.01,0.01,0.0,-4.47,-0.05,-0.02
14:38:38.062,0.01,0.02,-0.0,-4.4,-0.04,0.03
14:38:38.070,0.0,0.0,0.0,-4.5,-0.0,0.15
14:38:38.077,0.01,0.01,0.0,-4.57,-0.04,0.13
14:38:38.084,0.01,0.01,0.0,-4.62,-0.03,-0.16
14:38:38.092,0.01,0.01,-0.01,-4.53,0.11,0.25
14:38:38.099,0.01,0.01,-0.01,-4.45,-0.07,0.24
14:38:38.106,0.0,0.0,-0.0,-4.47,0.01,0.05
14:38:38.114,-0.0,-0.01,-0.0,-4.42,0.21,-0.06
14:38:38.121,0.0,0.0,-0.0,-4.49,-0.06,-0.02
14:38:38.128,0.01,0.01,-0.01,-4.56,0.03,-0.08
14:38:38.136,-0.0,0.0,-0.01,-4.56,-0.03,0.04
14:38:38.143,0.01,0.0,0.0,-4.48,-0.01,0.07
14:38:38.150,0.0,0.01,-0.01,-4.34,0.03,0.07
14:38:38.157,-0.0,0.0,-0.0,-4.4,0.01,-0.01
14:38:38.165,0.0,0.0,-0.0,-4.53,-0.02,0.02
14:38:38.172,0.0,-0.01,0.0,-4.51,-0.04,-0.0
14:38:38.179,0.01,0.0,0.0,-4.53,-0.09,0.1
14:38:38.187,0.0,0.0,-0.0,-4.52,0.04,0.1
14:38:38.194,0.0,0.0,-0.0,-4.4,0.04,0.05
14:38:38.201,0.0,0.0,-0.01,-4.44,0.07,-0.03
14:38:38.209,0.01,-0.0,-0.0,-4.5,-0.03,-0.07
14:38:38.216,0.0,0.0,0.01,-4.47,0.15,-0.06
14:38:38.223,0.0,0.0,-0.0,-4.63,-0.13,0.08
14:38:38.230,0.01,0.0,0.02,-4.43,0.2,-0.02
14:38:38.238,0.0,0.01,-0.02,-4.51,0.07,0.04
14:38:38.245,0.0,0.0,-0.01,-4.4,-0.01,0.01
14:38:38.252,0.01,0.01,0.0,-4.62,0.06,0.02
14:38:38.260,0.01,0.01,-0.0,-4.49,0.07,0.13
14:38:38.267,0.0,0.0,-0.0,-4.46,-0.06,-0.11
14:38:38.274,-0.0,0.0,0.0,-4.47,-0.03,-0.02
14:38:38.281,0.0,0.01,0.0,-4.53,-0.1,-0.04
14:38:38.289,0.0,0.0,0.0,-4.51,0.07,-0.02
14:38:38.296,0.0,0.01,-0.0,-4.44,-0.1,-0.11
14:38:38.303,0.0,-0.0,-0.01,-4.39,0.1,-0.03
14:38:38.311,0.0,0.0,0.0,-4.58,0.02,-0.02
14:38:38.318,0.01,0.01,-0.0,-4.44,-0.03,-0.02
14:38:38.325,0.01,0.01,0.01,-4.37,-0.01,0.01
14:38:38.333,0.01,0.01,-0.0,-4.55,-0.04,-0.06
14:38:38.340,0.0,0.01,-0.0,-4.41,-0.0,-0.03
14:38:38.347,0.01,-0.0,0.0,-4.56,-0.06,-0.09
14:38:38.354,0.0,0.0,-0.02,-4.58,-0.0,-0.16
14:38:38.362,0.0,0.01,0.0,-4.41,0.1,-0.0
14:38:38.369,0.0,0.0,0.0,-4.5,-0.01,0.26
14:38:38.376,0.0,0.02,-0.0,-4.49,-0.0,-0.05
14:38:38.384,0.0,-0.0,-0.01,-4.47,0.01,0.04
14:38:38.391,-0.0,0.01,0.0,-4.63,0.02,0.07
14:38:38.398,0.0,0.0,-0.02,-4.46,0.16,0.07
14:38:38.405,0.01,0.01,-0.01,-4.6,-0.07,0.06
14:38:38.413,0.0,0.01,0.0,-4.54,0.01,0.07
14:38:38.420,0.01,0.0,0.0,-4.6,0.01,0.07
14:38:38.427,0.0,0.0,0.0,-4.45,0.09,0.08
14:38:38.435,0.0,0.01,0.0,-4.47,0.16,0.04
14:38:38.442,0.0,0.0,-0.0,-4.47,-0.05,-0.04
14:38:38.449,0.0,0.0,-0.0,-4.45,-0.01,0.1
14:38:38.457,-0.0,0.0,-0.0,-4.6,0.12,-0.0
14:38:38.464,-0.0,-0.0,-0.0,-4.51,0.04,-0.07
14:38:38.471,0.0,0.01,0.0,-4.56,0.14,0.05
14:38:38.478,0.01,0.0,-0.0,-4.41,-0.06,-0.12
14:38:38.486,0.0,0.01,-0.0,-4.37,0.02,0.21
14:38:38.493,0.01,0.01,-0.0,-4.39,0.06,-0.11
14:38:38.500,0.0,0.0,0.0,-4.56,0.03,0.02
14:38:38.508,0.0,0.0,-0.0,-4.64,0.07,0.01
14:38:38.515,0.01,0.01,-0.02,-4.52,0.01,-0.05
14:38:38.522,0.01,0.01,-0.0,-4.59,0.07,0.16
14:38:38.530,0.01,-0.01,0.0,-4.47,-0.06,0.04
14:38:38.537,-0.0,0.0,0.0,-4.53,0.14,0.07
14:38:38.544,0.0,0.01,-0.01,-4.58,-0.19,-0.01
14:38:38.551,0.0,0.01,0.0,-4.41,-0.04,0.09
14:38:38.559,0.0,0.0,-0.01,-4.48,-0.06,0.21
14:38:38.566,0.01,0.01,-0.0,-4.55,-0.16,0.19
14:38:38.573,0.0,-0.01,0.0,-4.56,-0.05,0.16
14:38:38.581,0.0,0.0,-0.0,-4.4,-0.03,0.01
14:38:38.588,0.0,0.01,-0.0,-4.4,-0.08,-0.03
14:38:38.595,-0.0,0.01,0.01,-4.42,0.0,0.05
14:38:38.602,0.0,0.01,-0.01,-4.47,-0.03,-0.09
14:38:38.610,0.0,0.02,0.01,-4.53,0.07,-0.03
14:38:38.617,0.0,-0.0,-0.0,-4.52,0.04,-0.06
14:38:38.624,0.0,0.0,-0.0,-4.47,-0.03,-0.03
14:38:38.632,0.0,-0.0,0.0,-4.57,0.13,-0.03
14:38:38.639,0.01,0.01,-0.02,-4.45,0.03,0.11
14:38:38.646,0.01,0.01,-0.0,-4.48,-0.12,0.03
14:38:38.653,0.0,0.0,-0.01,-4.48,-0.03,0.07
14:38:38.661,0.01,0.0,0.01,-4.56,0.1,0.03
14:38:38.668,0.01,0.01,-0.0,-4.38,0.02,0.28
14:38:38.675,0.0,-0.0,0.01,-4.5,-0.08,0.08
14:38:38.683,0.0,0.0,-0.0,-4.41,-0.05,0.1
14:38:38.690,0.01,0.0,-0.01,-4.47,0.02,0.16
14:38:38.697,0.0,-0.01,-0.0,-4.37,-0.16,0.13
14:38:38.704,0.01,0.01,-0.01,-4.42,0.05,0.08
14:38:38.712,0.01,0.0,0.0,-4.42,0.09,-0.02
14:38:38.719,0.01,-0.01,-0.01,-4.45,-0.06,-0.15
14:38:38.726,0.01,-0.0,-0.0,-4.37,0.1,-0.22
14:38:38.734,0.01,-0.0,0.01,-4.4,0.02,0.01
14:38:38.741,-0.01,0.0,0.0,-4.34,0.1,-0.09
14:38:38.748,0.0,0.01,0.0,-4.35,0.04,-0.06
14:38:38.755,0.0,0.02,0.0,-4.5,-0.03,0.05
14:38:38.763,0.0,0.01,-0.0,-4.4,-0.05,-0.02
14:38:38.770,0.0,0.0,-0.0,-4.4,0.03,-0.12
14:38:38.777,0.0,0.01,-0.0,-4.47,0.08,0.09
14:38:38.785,0.0,0.01,0.0,-4.48,0.1,0.06
14:38:38.792,0.0,0.01,0.0,-4.49,0.09,-0.03
14:38:38.799,0.01,0.01,-0.0,-4.56,-0.0,0.07
14:38:38.807,-0.0,0.0,0.0,-4.43,0.04,-0.03
14:38:38.814,0.0,0.01,0.01,-4.39,0.11,-0.03
14:38:38.821,0.01,0.0,0.0,-4.5,-0.03,0.07
14:38:38.829,-0.0,0.0,-0.0,-4.47,0.02,-0.07
14:38:38.836,0.0,0.02,0.01,-4.55,-0.14,0.14
14:38:38.843,0.0,0.0,-0.01,-4.66,-0.06,0.01
14:38:38.850,0.0,-0.01,0.0,-4.42,-0.06,-0.07
14:38:38.858,0.0,0.01,0.0,-4.47,-0.05,0.03
14:38:38.865,0.0,0.0,-0.0,-4.52,0.07,0.06
14:38:38.872,0.01,0.01,0.0,-4.44,-0.05,0.1
14:38:38.879,0.01,0.01,-0.0,-4.56,0.07,-0.07
14:38:38.887,0.01,0.0,-0.0,-4.42,-0.02,-0.13
14:38:38.894,0.0,0.0,0.0,-4.45,0.12,0.2
14:38:38.901,0.01,-0.01,0.0,-4.45,-0.1,-0.2
14:38:38.909,0.0,-0.0,-0.0,-4.39,0.12,-0.03
14:38:38.916,0.0,0.01,0.01,-4.53,-0.05,0.07
14:38:38.923,-0.0,-0.0,0.0,-4.56,-0.13,0.04
14:38:38.931,0.01,0.0,-0.0,-4.47,-0.02,-0.03
14:38:38.938,-0.0,0.01,-0.0,-4.5,-0.09,0.13
14:38:38.945,0.01,0.0,0.01,-4.53,-0.17,0.01
14:38:38.952,0.01,0.01,0.01,-4.49,-0.0,0.17
14:38:38.960,-0.0,0.01,0.01,-4.5,0.06,0.06
14:38:38.967,0.01,0.0,0.0,-4.48,0.02,0.11
14:38:38.974,-0.0,0.02,0.0,-4.27,0.04,0.02
14:38:38.982,0.01,0.01,-0.0,-4.5,0.0,-0.03
14:38:38.989,0.0,-0.0,-0.0,-4.6,0.08,0.13
14:38:38.996,0.0,-0.01,-0.01,-4.53,0.08,0.07
14:38:39.003,0.0,0.0,-0.0,-4.44,-0.06,-0.12
14:38:39.011,0.0,0.01,-0.0,-4.47,-0.05,0.04
14:38:39.018,0.0,0.0,-0.02,-4.53,0.05,-0.03
14:38:39.025,0.0,0.01,-0.01,-4.56,-0.16,0.05
14:38:39.033,0.0,0.0,-0.0,-4.52,0.22,0.01
14:38:39.040,0.01,0.0,-0.01,-4.44,-0.13,0.05
14:38:39.047,0.0,-0.0,0.01,-4.42,0.0,0.07
14:38:39.055,0.01,0.0,0.0,-4.5,0.0,-0.06
14:38:39.062,0.0,0.01,0.0,-4.59,-0.02,0.07
14:38:39.069,0.01,-0.01,-0.0,-4.47,-0.03,-0.12
14:38:39.077,0.0,0.0,-0.0,-4.55,-0.02,-0.03
14:38:39.084,0.0,0.0,0.0,-4.53,0.02,0.05
14:38:39.091,0.0,0.0,-0.01,-4.36,0.1,0.02
14:38:39.099,0.0,0.0,0.0,-4.47,0.0,0.1
14:38:39.106,0.01,0.01,-0.0,-4.47,-0.02,-0.02
14:38:39.113,0.01,0.0,0.0,-4.5,-0.03,-0.13
14:38:39.121,0.0,0.01,-0.0,-4.44,-0.17,0.04
14:38:39.128,0.0,-0.01,-0.01,-4.56,0.11,-0.12
14:38:39.135,0.0,0.01,0.0,-4.53,0.07,-0.07
14:38:39.142,-0.0,-0.0,-0.0,-4.39,0.06,0.04
14:38:39.150,0.01,-0.01,0.0,-4.44,-0.13,-0.02
14:38:39.157,0.0,0.0,0.0,-4.62,0.02,-0.02
14:38:39.164,0.02,0.0,0.0,-4.46,0.04,-0.08
14:38:39.172,0.0,0.0,0.01,-4.43,0.16,-0.03
14:38:39.179,0.01,0.01,-0.0,-4.53,0.06,-0.06
14:38:39.186,0.0,0.0,-0.01,-4.57,0.04,-0.3
14:38:39.193,0.0,0.01,-0.0,-4.63,0.1,-0.15
14:38:39.201,0.0,0.0,-0.0,-4.48,0.1,-0.03
14:38:39.208,0.01,0.0,-0.02,-4.32,0.04,-0.14
14:38:39.215,0.0,-0.0,-0.0,-4.44,-0.06,-0.03
14:38:39.223,-0.01,0.01,0.0,-4.51,-0.0,-0.08
14:38:39.230,0.0,-0.01,0.01,-4.4,-0.05,0.07
14:38:39.237,0.01,0.0,0.0,-4.45,0.07,0.02
14:38:39.244,0.0,0.0,-0.01,-4.55,0.15,-0.03
14:38:39.252,0.0,0.01,-0.0,-4.48,-0.01,0.01
14:38:39.259,0.0,-0.0,-0.0,-4.44,-0.08,0.07
14:38:39.266,0.0,0.0,0.01,-4.5,-0.02,0.19
14:38:39.274,0.01,0.0,-0.01,-4.44,0.07,0.05
14:38:39.281,0.0,0.0,-0.0,-4.44,-0.09,0.07
14:38:39.288,0.0,0.0,0.01,-4.44,0.07,0.09
14:38:39.295,0.0,0.02,-0.0,-4.48,-0.05,0.06
14:38:39.303,0.01,0.0,-0.0,-4.53,-0.04,0.04
14:38:39.310,0.01,0.0,0.0,-4.74,0.06,0.01
14:38:39.317,0.01,0.01,-0.0,-4.37,-0.04,-0.03
14:38:39.325,0.01,0.0,-0.01,-4.61,-0.09,0.01
14:38:39.332,0.0,0.0,-0.01,-4.53,0.07,0.02
14:38:39.340,0.0,0.0,0.0,-4.42,0.01,0.07
14:38:39.347,0.0,0.01,-0.0,-4.54,-0.02,-0.14
14:38:39.354,0.0,0.01,0.0,-4.56,-0.02,-0.16
14:38:39.362,0.0,0.01,-0.01,-4.45,-0.03,0.07
14:38:39.369,0.0,0.0,0.01,-4.5,-0.03,0.05
14:38:39.376,-0.0,0.01,0.0,-4.48,-0.02,0.03
14:38:39.383,0.0,0.01,0.01,-4.42,0.1,-0.03
14:38:39.391,0.0,0.01,-0.0,-4.42,0.11,-0.14
14:38:39.398,0.0,0.01,0.0,-4.46,-0.06,-0.11
14:38:39.405,-0.0,-0.01,0.0,-4.53,-0.0,0.01
14:38:39.413,0.0,0.01,-0.01,-4.65,0.04,0.01
14:38:39.420,0.01,0.02,-0.01,-4.47,0.04,-0.09
14:38:39.427,0.0,0.02,-0.01,-4.46,0.13,-0.07
14:38:39.434,0.0,0.0,0.0,-4.46,-0.03,0.17
14:38:39.442,0.01,-0.01,-0.0,-4.59,-0.02,0.02
14:38:39.449,0.0,0.01,0.01,-4.4,-0.04,0.04
14:38:39.456,0.0,0.0,-0.01,-4.59,0.07,-0.08
14:38:39.464,0.0,-0.01,-0.02,-4.43,0.02,-0.07
14:38:39.471,0.0,0.01,-0.01,-4.4,0.13,-0.11
14:38:39.478,0.0,0.01,-0.0,-4.47,-0.0,-0.08
14:38:39.486,0.0,0.01,0.01,-4.56,0.18,-0.02
14:38:39.493,-0.0,0.0,0.01,-4.56,0.07,0.04
14:38:39.500,-0.0,0.01,-0.0,-4.38,0.13,0.07
14:38:39.507,0.01,0.0,-0.0,-4.56,0.12,0.23
14:38:39.515,0.01,0.01,-0.0,-4.47,-0.09,-0.03
14:38:39.522,0.0,-0.01,-0.0,-4.6,-0.03,0.15
14:38:39.529,-0.0,0.0,-0.0,-4.58,0.08,0.1
14:38:39.537,0.0,0.0,-0.01,-4.49,0.01,0.13
14:38:39.544,0.01,0.0,-0.02,-4.44,-0.11,0.1
14:38:39.551,0.01,0.0,0.0,-4.48,0.03,-0.0
14:38:39.558,0.0,0.01,-0.0,-4.41,-0.12,-0.05
14:38:39.566,0.0,0.01,-0.01,-4.45,0.18,0.04
14:38:39.573,0.0,0.01,0.0,-4.58,-0.03,0.04
14:38:39.580,0.0,-0.0,0.0,-4.48,0.07,0.01
14:38:39.588,0.01,0.0,0.0,-4.49,-0.13,-0.03
14:38:39.595,0.0,0.0,-0.01,-4.59,0.1,0.18
14:38:39.602,0.0,-0.01,0.0,-4.47,0.2,0.07
14:38:39.610,0.01,0.0,0.0,-4.5,0.16,0.02
14:38:39.617,0.0,-0.0,-0.0,-4.5,0.05,-0.08
14:38:39.624,-0.0,-0.01,0.0,-4.36,-0.05,0.01
14:38:39.631,0.01,0.0,-0.0,-4.53,0.02,0.14
14:38:39.639,0.01,-0.0,-0.0,-4.37,0.04,-0.05
14:38:39.646,0.0,-0.01,0.0,-4.51,-1.67,0.13
14:38:39.653,0.01,0.01,0.0,-4.44,-0.02,-0.03
14:38:39.661,-0.0,0.01,0.01,-4.45,0.12,-0.06
14:38:39.668,-0.0,0.01,-0.01,-4.59,0.16,-0.13
14:38:39.675,0.0,0.01,0.0,-4.53,-0.06,-0.05
14:38:39.682,0.01,0.01,-0.0,-4.5,-0.01,0.07
14:38:39.690,-0.0,0.01,-0.0,-4.47,-0.1,0.17
14:38:39.697,-0.0,0.0,-0.0,-4.37,-0.06,0.01
14:38:39.704,-0.02,0.01,-0.0,-4.51,0.13,0.08
14:38:39.712,0.0,0.01,0.0,-4.47,-0.09,0.04
14:38:39.719,-0.0,0.0,-0.0,-4.42,0.01,0.15
14:38:39.726,0.0,-0.01,0.0,-4.68,-0.0,0.13
14:38:39.734,0.01,-0.0,-0.01,-4.6,0.05,0.1
14:38:39.741,0.0,0.0,0.01,-4.4,0.04,0.07
14:38:39.748,0.01,-0.0,-0.0,-4.54,0.1,0.01
14:38:39.755,0.0,-0.0,0.01,-4.41,-0.04,0.05
14:38:39.763,0.0,0.02,0.0,-4.5,0.1,0.07
14:38:39.770,0.01,0.01,-0.0,-4.32,0.07,-0.13
14:38:39.777,0.0,0.0,-0.0,-4.44,0.1,0.08
14:38:39.785,0.01,0.01,0.01,-4.47,-0.09,-0.06
14:38:39.792,0.0,0.0,-0.0,-4.51,0.03,-0.25
14:38:39.799,0.0,0.01,-0.01,-4.38,0.07,-0.05
14:38:39.806,0.0,0.0,-0.02,-4.48,0.07,-0.27
14:38:39.814,0.01,0.0,-0.0,-4.49,0.05,0.03
14:38:39.821,-0.0,0.02,0.01,-4.7,-0.12,0.19
14:38:39.828,0.01,0.01,-0.0,-4.55,0.17,0.01
14:38:39.836,0.01,0.01,-0.01,-4.42,-0.02,-0.14
14:38:39.843,0.03,-0.01,0.0,-4.47,0.13,-0.08
14:38:39.850,0.01,-0.0,-0.0,-4.36,0.06,-0.42
14:38:39.857,-0.0,0.01,0.0,-4.54,0.06,-0.22
14:38:39.865,0.01,0.0,0.0,-4.55,0.04,-0.19
14:38:39.872,0.01,-0.0,0.0,-4.39,0.2,-0.41
14:38:39.879,0.01,0.01,0.0,-4.37,0.22,-0.12
14:38:39.887,0.01,-0.0,-0.0,-4.47,0.15,-0.36
14:38:39.894,0.01,0.0,0.01,-4.3,0.35,-0.44
14:38:39.901,0.0,0.0,0.0,-4.35,0.15,-0.46
14:38:39.909,-0.0,0.01,0.0,-4.41,0.33,-0.33
14:38:39.916,-0.0,0.0,-0.01,-4.35,0.13,-0.29
14:38:39.923,-0.0,0.01,-0.01,-4.4,0.13,-0.19
14:38:39.930,-0.01,0.01,0.0,-4.52,0.1,-0.19
14:38:39.938,-0.01,0.0,-0.0,-4.31,0.06,-0.24
14:38:39.945,-0.02,0.0,-0.02,-4.25,-0.14,0.12
14:38:39.952,-0.03,0.01,-0.01,-4.37,0.02,0.44
14:38:39.960,-0.02,0.01,-0.01,-4.57,-0.3,0.45
14:38:39.967,-0.02,0.0,-0.02,-4.53,-0.25,0.46
14:38:39.974,-0.02,0.0,-0.0,-4.61,-0.26,0.82
14:38:39.981,-0.01,0.01,-0.0,-4.49,-0.35,0.65
14:38:39.989,-0.01,0.0,-0.0,-4.44,-0.37,0.68
14:38:39.996,-0.0,0.01,-0.01,-4.57,-0.43,0.62
14:38:40.003,-0.0,0.01,0.0,-4.72,-0.2,0.68
14:38:40.011,0.0,0.0,-0.0,-4.65,-0.27,0.81
14:38:40.018,-0.0,-0.01,0.0,-4.61,-0.28,0.7
14:38:40.025,0.0,-0.01,-0.0,-4.45,-0.33,0.69
14:38:40.033,0.0,0.0,0.0,-4.54,-0.23,0.87
14:38:40.040,0.0,0.01,-0.0,-4.63,-0.22,0.75
14:38:40.047,0.01,0.0,-0.0,-4.61,-0.02,0.67
14:38:40.055,0.01,-0.01,0.01,-4.53,-0.16,0.72
14:38:40.062,0.02,0.0,0.0,-4.59,-0.09,0.59
14:38:40.069,0.02,0.0,0.0,-4.56,-0.13,0.43
14:38:40.077,0.01,0.01,-0.01,-4.37,0.04,0.52
14:38:40.084,0.02,0.01,-0.0,-4.48,-0.1,0.28
14:38:40.091,0.02,0.01,0.0,-4.47,-0.1,0.22
14:38:40.099,0.02,0.01,0.01,-4.58,0.06,0.23
14:38:40.106,0.02,0.0,-0.01,-4.49,0.02,0.21
14:38:40.113,0.02,0.02,0.01,-4.53,0.04,-0.16
14:38:40.120,0.01,0.01,0.01,-4.48,0.17,0.03
14:38:40.128,0.02,0.0,0.01,-4.45,0.13,0.15
14:38:40.135,0.02,0.0,0.0,-4.41,0.16,-0.02
14:38:40.142,0.02,0.0,0.01,-4.47,0.12,-0.06
14:38:40.150,0.02,-0.0,0.0,-4.53,0.19,-0.22
14:38:40.157,0.02,0.01,0.01,-4.57,0.05,-0.26
14:38:40.164,0.02,-0.0,-0.0,-4.46,-0.02,-0.34
14:38:40.172,0.01,0.0,-0.0,-4.56,0.09,-0.35
14:38:40.179,0.02,-0.01,-0.0,-4.56,0.13,-0.4
14:38:40.186,0.01,0.01,-0.0,-4.33,0.17,-0.63
14:38:40.193,0.03,0.0,0.0,-4.56,0.07,-0.68
14:38:40.201,0.01,0.0,0.01,-4.36,0.23,-0.61
14:38:40.208,0.01,0.0,-0.0,-4.41,0.15,-0.57
14:38:40.215,0.0,0.0,-0.0,-4.4,0.36,-0.48
14:38:40.223,0.0,-0.0,0.0,-4.54,0.23,-0.5
14:38:40.230,-0.0,0.0,-0.0,-4.58,-1.69,-0.58
14:38:40.237,0.0,-0.0,0.0,-4.39,0.33,-0.42
14:38:40.244,-0.0,0.01,0.0,-4.36,0.07,-0.42
14:38:40.252,-0.02,0.0,-0.01,-4.51,0.05,-0.41
14:38:40.259,-0.01,0.01,0.0,-4.48,0.17,-0.53
14:38:40.266,-0.01,0.01,-0.01,-4.36,0.12,-0.35
14:38:40.274,-0.01,0.0,-0.01,-4.35,0.02,-0.22
14:38:40.281,-0.01,0.0,-0.01,-4.49,0.05,-0.13
14:38:40.288,-0.01,0.0,-0.01,-4.43,-0.16,-0.14
14:38:40.295,-0.01,0.01,0.01,-4.62,-0.07,0.01
14:38:40.303,-0.01,0.0,-0.0,-4.41,0.1,0.07
14:38:40.310,-0.01,0.01,-0.01,-4.41,-0.06,0.1
14:38:40.317,-0.01,0.0,-0.01,-4.73,0.1,0.26
14:38:40.325,-0.0,0.0,-0.01,-4.52,0.11,0.23
14:38:40.332,0.01,-0.01,-0.0,-4.5,-0.03,0.03
14:38:40.339,0.01,0.0,0.0,-4.5,-0.06,0.22
14:38:40.347,0.0,0.0,-0.0,-4.44,-0.05,0.27
14:38:40.354,-0.0,0.02,-0.0,-4.65,-0.17,0.09
14:38:40.361,0.01,0.0,-0.0,-4.31,-0.13,0.33
14:38:40.368,-0.0,0.0,0.0,-4.55,-0.12,0.29
14:38:40.376,0.01,0.0,0.0,-4.56,-0.13,0.22
14:38:40.383,0.0,0.01,-0.0,-4.51,-0.15,0.33
14:38:40.390,0.0,0.0,-0.01,-4.58,0.06,0.45
14:38:40.398,0.01,0.02,-0.01,-4.56,-0.16,0.25
14:38:40.405,0.0,0.0,-0.01,-4.44,-0.07,0.32
14:38:40.412,0.0,0.01,0.0,-4.49,-0.31,0.2
14:38:40.419,0.0,-0.01,0.01,-4.56,-0.04,0.26
14:38:40.427,0.01,0.01,0.0,-4.45,-0.23,0.39
14:38:40.434,0.01,-0.0,0.0,-4.37,-0.13,0.01
14:38:40.441,0.0,0.01,-0.0,-4.41,-0.15,0.29
14:38:40.448,0.01,0.01,0.01,-4.51,-0.1,0.16
14:38:40.456,-0.0,0.01,-0.01,-4.47,-0.01,0.14
14:38:40.463,-0.0,0.01,-0.01,-4.53,-0.05,0.29
14:38:40.470,0.01,0.0,-0.0,-4.47,0.03,0.07
14:38:40.478,0.03,0.01,0.0,-4.39,0.03,-0.06
14:38:40.485,0.02,0.0,0.0,-4.42,0.01,0.09
14:38:40.492,0.02,0.01,0.01,-4.43,0.25,-0.32
14:38:40.500,0.02,0.0,-0.01,-4.37,0.29,-0.09
14:38:40.507,0.02,0.01,0.0,-4.47,0.16,-0.45
14:38:40.514,0.01,0.01,0.01,-4.48,0.31,-0.36
14:38:40.521,0.0,-0.01,0.02,-4.33,2.2,-0.34
14:38:40.529,-0.01,0.0,0.0,-4.6,0.42,-0.49
14:38:40.536,-0.0,0.02,-0.0,-4.6,0.35,-0.24
14:38:40.543,0.0,-0.01,-0.0,-4.36,2.2,-0.25
14:38:40.551,-0.0,0.01,-0.01,-4.45,2.2,-0.04
14:38:40.558,0.01,0.01,-0.02,-4.44,0.19,-0.12
14:38:40.565,0.0,0.01,0.01,-4.57,0.05,-0.25
14:38:40.572,0.01,-0.0,-0.01,-4.44,0.08,-0.11
14:38:40.580,0.01,-0.0,-0.02,-4.47,0.26,-0.14
14:38:40.587,-0.01,0.01,0.01,-4.53,0.03,-0.03
14:38:40.594,0.0,-0.0,-0.0,-4.44,-0.16,-0.12
14:38:40.602,-0.01,0.0,0.01,-4.38,-0.09,-0.04
14:38:40.609,-0.0,0.0,-0.0,-4.42,0.0,0.02
14:38:40.616,-0.01,0.01,-0.01,-4.53,0.04,0.01
14:38:40.624,-0.0,-0.0,0.0,-4.5,0.02,0.14
14:38:40.631,0.0,0.01,-0.0,-4.47,0.0,0.14
14:38:40.638,0.01,0.0,-0.0,-4.63,-0.07,0.08
14:38:40.645,0.01,0.0,0.0,-4.44,-0.01,0.12
14:38:40.653,0.0,0.0,0.0,-4.45,-0.07,0.02
14:38:40.660,0.0,0.01,0.0,-4.46,-0.03,-0.06
14:38:40.668,0.01,0.01,0.01,-4.53,-0.03,0.05
14:38:40.675,0.01,-0.01,0.0,-4.58,-0.0,0.06
14:38:40.682,-0.0,-0.0,-0.0,-4.45,0.0,0.02
14:38:40.689,-0.0,0.0,-0.01,-4.41,0.02,-0.13
14:38:40.697,0.01,0.0,0.01,-4.47,0.05,0.06
14:38:40.704,0.0,0.0,0.01,-4.4,0.04,-0.09
14:38:40.711,0.01,0.0,-0.0,-4.38,0.09,-0.02
14:38:40.719,0.01,0.0,-0.0,-4.44,0.1,0.07
14:38:40.726,0.01,-0.0,0.01,-4.4,-0.08,-0.02
14:38:40.733,0.01,0.01,-0.01,-4.45,-0.04,-0.16
14:38:40.740,0.02,0.0,-0.0,-4.59,-0.09,-0.11
14:38:40.748,0.0,0.0,-0.0,-4.5,-0.06,-0.15
14:38:40.755,0.0,0.01,-0.0,-4.46,0.02,0.01
14:38:40.762,0.0,0.0,-0.02,-4.51,-0.03,-0.03
14:38:40.770,0.0,0.0,0.0,-4.35,-0.05,-0.08
14:38:40.777,-0.0,0.01,0.01,-4.5,-0.07,0.02
14:38:40.784,-0.01,0.0,0.0,-4.37,0.26,0.09
14:38:40.791,0.01,0.01,-0.0,-4.55,0.13,-0.04
14:38:40.799,0.01,-0.01,0.0,-4.54,0.11,0.19
14:38:40.806,0.0,0.0,0.0,-4.57,0.03,-0.06
14:38:40.813,0.0,0.0,0.0,-4.48,0.02,-0.08
14:38:40.821,0.0,0.01,0.0,-4.47,0.1,0.12
14:38:40.828,0.0,0.01,-0.01,-4.53,0.13,0.09
14:38:40.835,0.0,0.01,0.0,-4.52,0.0,-0.06
14:38:40.842,-0.0,-0.0,-0.0,-4.43,0.08,0.01
14:38:40.850,0.0,0.01,0.0,-4.66,-0.13,0.01
14:38:40.857,-0.0,0.0,0.01,-4.55,0.06,-0.03
14:38:40.864,0.0,0.0,0.01,-4.5,-0.01,-0.02
14:38:40.872,0.0,0.01,0.0,-4.47,0.01,0.1
14:38:40.879,0.02,0.01,0.0,-4.42,-0.08,0.11
14:38:40.886,0.0,0.0,-0.0,-4.5,0.03,-0.13
14:38:40.893,0.01,0.0,-0.0,-4.4,0.06,-0.16
14:38:40.901,0.01,0.0,-0.0,-4.6,0.03,-0.19
14:38:40.908,0.0,0.0,-0.0,-4.65,0.06,-0.1
14:38:40.915,-0.0,-0.0,0.0,-4.51,0.04,0.04
14:38:40.923,0.0,0.02,0.0,-4.32,0.16,0.02
14:38:40.930,-0.0,0.01,-0.01,-4.4,0.08,0.13
14:38:40.937,0.0,0.01,0.0,-4.52,0.15,0.03
14:38:40.944,0.0,0.01,0.0,-4.59,0.0,0.1
14:38:40.952,0.0,0.0,0.0,-4.4,-0.06,0.05
14:38:40.959,0.0,0.02,-0.0,-4.44,-0.0,0.19
14:38:40.966,0.01,0.0,0.01,-4.35,0.04,0.06
14:38:40.974,0.0,-0.0,-0.0,-4.51,-0.02,0.25
14:38:40.981,0.01,0.0,-0.0,-4.47,0.13,-0.0
14:38:40.988,0.01,0.01,0.0,-4.55,-0.06,0.17
14:38:40.995,0.0,-0.0,-0.01,-4.53,0.21,0.1
14:38:41.003,0.0,0.01,-0.02,-4.58,0.15,0.05
14:38:41.010,0.0,0.01,-0.0,-4.47,-0.09,-0.07
14:38:41.017,-0.0,0.0,-0.01,-4.51,-0.12,0.02
14:38:41.024,0.01,0.01,-0.01,-4.49,0.0,0.09
14:38:41.032,0.01,0.0,0.0,-4.45,-0.01,0.2
14:38:41.039,-0.0,0.0,-0.0,-4.45,0.14,0.13
14:38:41.046,0.01,0.0,0.01,-4.52,-0.15,0.14
14:38:41.054,-0.0,0.0,-0.0,-4.45,-0.14,0.17
14:38:41.061,0.01,0.0,-0.0,-4.59,-0.05,0.17
14:38:41.069,0.0,0.0,-0.01,-4.47,-0.11,0.14
14:38:41.076,0.01,0.0,0.0,-4.54,-0.03,0.19
14:38:41.083,0.01,0.01,0.0,-4.43,-0.04,0.1
14:38:41.090,0.01,0.0,-0.01,-4.55,-0.09,0.14
14:38:41.098,0.01,0.0,-0.0,-4.53,-0.19,-0.0
14:38:41.105,0.02,-0.0,-0.01,-4.37,0.0,0.06
14:38:41.112,0.01,0.0,0.0,-4.54,-0.07,0.07
14:38:41.120,-0.0,0.0,0.0,-4.4,0.03,-0.06
14:38:41.127,0.01,0.0,0.0,-4.47,0.04,-0.04
14:38:41.134,0.01,0.01,0.0,-4.53,0.01,-0.06
14:38:41.141,0.0,0.02,0.0,-4.43,-0.0,-0.12
14:38:41.149,0.01,0.0,-0.0,-4.39,0.02,-0.11
14:38:41.156,0.01,0.0,0.0,-4.42,0.16,-0.08
14:38:41.163,0.01,0.0,0.01,-4.52,0.22,-0.16
14:38:41.171,0.0,0.01,0.0,-4.54,0.23,-0.01
14:38:41.178,0.0,0.01,-0.0,-4.38,0.14,-0.15
14:38:41.185,0.0,0.01,-0.0,-4.75,0.21,-0.16
14:38:41.192,0.01,0.0,0.01,-4.37,0.1,-0.22
14:38:41.200,0.0,0.0,-0.0,-4.54,0.11,-0.2
14:38:41.207,-0.0,0.01,-0.0,-4.53,0.04,-0.0
14:38:41.214,0.0,0.01,0.0,-4.47,0.01,-0.31
14:38:41.222,0.01,-0.0,0.0,-4.45,0.14,-0.29
14:38:41.229,0.01,0.01,-0.01,-4.47,0.13,-0.06
14:38:41.236,0.01,0.01,0.01,-4.47,0.07,-0.22
14:38:41.244,0.0,0.0,-0.01,-4.38,0.15,-0.13
14:38:41.251,0.0,0.01,-0.0,-4.4,0.07,-0.1
14:38:41.258,0.0,-0.0,0.0,-4.5,0.26,-0.04
14:38:41.265,0.0,0.01,-0.0,-4.41,0.03,-0.09
14:38:41.273,-0.0,0.0,-0.0,-4.43,0.12,-0.17
14:38:41.280,0.0,0.0,-0.0,-4.43,0.07,-0.08
14:38:41.287,-0.0,0.01,-0.0,-4.5,0.07,-0.06
14:38:41.295,0.0,0.02,-0.0,-4.44,0.1,-0.04
14:38:41.302,0.0,0.0,0.01,-4.5,0.01,0.01
14:38:41.309,0.01,0.0,-0.0,-4.55,0.23,-0.1
14:38:41.316,-0.0,-0.01,0.0,-4.47,-0.03,-0.06
14:38:41.324,0.0,0.01,-0.0,-4.45,0.07,-0.01
14:38:41.331,0.0,0.0,0.0,-4.56,0.04,-0.01
14:38:41.338,0.0,0.02,0.0,-4.29,-0.06,0.07
14:38:41.346,0.0,0.0,-0.01,-4.53,-0.02,0.01
14:38:41.353,0.0,0.01,-0.01,-4.55,0.02,0.25
14:38:41.360,-0.0,0.01,-0.02,-4.6,0.02,0.21
14:38:41.368,0.0,0.01,-0.02,-4.49,-0.05,0.2
14:38:41.375,0.0,0.01,-0.0,-4.47,-0.05,0.06
14:38:41.382,0.0,0.0,-0.01,-4.42,-0.11,0.08
14:38:41.389,0.0,0.01,-0.0,-4.56,-0.01,0.11
14:38:41.397,0.0,0.01,0.0,-4.45,0.09,0.07
14:38:41.404,0.0,0.0,0.0,-4.47,-0.15,0.22
14:38:41.411,-0.0,0.01,0.0,-4.51,-0.04,0.23
14:38:41.419,-0.0,0.01,-0.0,-4.61,-0.13,0.23
14:38:41.426,0.0,0.0,-0.0,-4.44,0.0,0.07
14:38:41.433,0.0,0.01,0.0,-4.45,-0.13,0.36
14:38:41.441,0.0,0.0,-0.01,-4.56,-0.09,0.23
14:38:41.448,-0.0,-0.0,-0.0,-4.57,0.09,0.21
14:38:41.455,0.01,0.0,0.01,-4.53,0.01,0.13
14:38:41.462,0.0,0.0,-0.01,-4.53,-0.22,0.14
14:38:41.470,0.01,0.0,0.01,-4.38,-0.06,0.23
14:38:41.477,0.0,-0.0,-0.0,-4.5,-0.03,0.14
14:38:41.484,0.01,0.0,-0.0,-4.51,-0.03,0.16
14:38:41.492,0.01,0.01,-0.0,-4.47,-0.1,0.16
14:38:41.499,0.0,0.02,-0.0,-4.43,-0.07,-0.06
14:38:41.506,0.01,0.01,-0.01,-4.51,0.05,-0.1
14:38:41.513,0.01,0.0,0.0,-4.52,0.12,0.04
14:38:41.521,0.01,0.02,0.0,-4.51,0.14,-0.07
14:38:41.528,0.01,0.01,-0.0,-4.5,0.25,-0.04
14:38:41.535,0.01,0.01,-0.01,-4.6,-0.01,0.04
14:38:41.543,0.02,0.01,-0.0,-4.44,-0.01,0.09
14:38:41.550,0.01,0.01,0.01,-4.4,0.11,-0.17
14:38:41.557,0.01,0.0,0.0,-4.56,0.01,-0.1
14:38:41.564,0.01,0.0,-0.0,-4.5,0.04,-0.16
14:38:41.572,0.01,0.01,-0.0,-4.5,0.08,0.09
14:38:41.579,0.01,0.01,-0.0,-4.34,-0.0,-0.14
14:38:41.586,0.0,0.0,-0.0,-4.64,0.08,0.09
14:38:41.594,0.0,0.0,-0.0,-4.31,0.03,-0.23
14:38:41.601,0.0,0.01,0.01,-4.6,0.01,-0.16
14:38:41.608,0.0,0.01,-0.01,-4.57,-0.0,-0.04
14:38:41.615,-0.0,0.01,-0.01,-4.34,-0.09,-0.19
14:38:41.623,0.0,0.0,-0.0,-4.41,-0.02,-0.29
14:38:41.630,0.0,0.01,0.0,-4.62,0.08,-0.21
14:38:41.637,-0.0,0.0,-0.0,-4.34,0.05,-0.1
14:38:41.644,0.0,0.01,-0.02,-4.4,0.09,0.01
14:38:41.652,-0.0,-0.0,-0.0,-4.54,0.02,-0.14
14:38:41.659,-0.0,-0.01,-0.0,-4.44,-0.08,-0.09
14:38:41.666,0.0,-0.01,-0.01,-4.37,-0.01,-0.09
14:38:41.674,0.01,0.0,0.0,-4.45,-0.0,-0.06
14:38:41.681,-0.01,-0.01,0.0,-4.47,0.03,0.01
14:38:41.688,0.0,0.0,-0.02,-4.55,-0.06,-0.05
14:38:41.695,-0.01,0.0,-0.0,-4.44,-0.01,0.01
14:38:41.703,-0.0,0.0,-0.0,-4.5,0.0,0.04
14:38:41.710,-0.0,0.0,0.0,-4.62,-0.1,0.01
14:38:41.717,-0.0,-0.0,0.0,-4.53,-0.0,0.04
14:38:41.725,-0.0,-0.01,-0.0,-4.56,-0.06,0.17
14:38:41.732,0.0,0.0,0.0,-4.39,0.04,-0.01
14:38:41.739,0.01,0.0,0.0,-4.53,-0.09,0.22
14:38:41.746,0.0,0.0,0.01,-4.57,-0.02,0.07
14:38:41.754,0.0,0.01,0.0,-4.62,0.04,0.05
14:38:41.761,0.01,0.0,-0.01,-4.53,0.1,0.17
14:38:41.768,0.0,0.01,-0.02,-4.48,0.04,0.05
14:38:41.776,0.01,0.0,-0.0,-4.47,0.02,-0.02
14:38:41.783,0.0,0.0,0.0,-4.47,0.07,0.1
14:38:41.790,0.01,-0.01,0.0,-4.54,0.02,0.02
14:38:41.797,0.0,0.0,0.0,-4.53,0.06,0.08
14:38:41.805,0.0,0.01,-0.01,-4.46,-0.08,0.11
14:38:41.812,0.01,0.0,-0.0,-4.55,-0.03,0.04
14:38:41.819,0.01,0.0,-0.01,-4.51,-0.05,0.17
14:38:41.827,-0.0,0.02,-0.0,-4.47,-0.01,0.31
14:38:41.834,0.01,0.01,-0.01,-4.43,-0.06,0.1
14:38:41.841,0.01,0.01,0.01,-4.56,-0.09,-0.02
14:38:41.848,0.0,-0.01,-0.02,-4.56,-0.0,-0.03
14:38:41.856,-0.0,0.0,-0.01,-4.59,0.0,-0.12
14:38:41.863,0.0,0.0,-0.0,-4.55,0.11,0.12
14:38:41.870,0.0,0.0,0.0,-4.38,0.1,0.14
14:38:41.878,0.0,0.0,0.0,-4.45,-0.06,0.12
14:38:41.885,0.0,-0.01,-0.0,-4.37,-0.04,0.07
14:38:41.892,0.01,0.01,0.0,-4.39,0.03,-0.0
14:38:41.899,0.0,0.01,-0.0,-4.48,0.17,-0.08
14:38:41.907,0.01,0.0,-0.0,-4.41,0.15,-0.18
14:38:41.914,0.01,0.0,0.0,-4.59,0.04,-0.15
14:38:41.921,0.01,0.01,0.0,-4.39,0.04,-0.04
14:38:41.929,0.0,0.0,-0.0,-4.31,0.13,-0.25
14:38:41.936,0.01,0.01,-0.0,-4.49,0.04,-0.07
14:38:41.943,0.0,0.01,-0.0,-4.42,0.07,-0.1
14:38:41.950,0.0,0.01,0.0,-4.5,0.05,-0.06
14:38:41.958,0.0,0.01,0.0,-4.47,0.02,0.08
14:38:41.965,-0.0,0.01,-0.0,-4.34,0.1,-0.02
14:38:41.972,-0.0,0.02,-0.01,-4.63,0.01,0.06
14:38:41.980,0.0,0.0,0.0,-4.39,0.09,0.06
14:38:41.987,0.0,0.01,-0.01,-4.51,-0.0,0.07
14:38:41.994,0.0,0.02,-0.0,-4.47,0.0,-0.09
14:38:42.001,0.0,0.0,-0.0,-4.46,-0.05,-0.07
14:38:42.009,0.0,0.0,-0.02,-4.53,0.06,-0.04
14:38:42.016,0.01,-0.0,-0.0,-4.6,-0.04,-0.03
14:38:42.024,0.0,0.0,0.0,-4.47,0.09,0.07
14:38:42.031,0.0,0.0,-0.0,-4.49,0.01,0.23
14:38:42.038,0.01,0.0,-0.0,-4.44,0.04,-0.02
14:38:42.045,-0.0,0.0,0.0,-4.53,0.01,0.06
14:38:42.053,0.0,0.01,-0.01,-4.56,0.01,0.01
14:38:42.060,-0.0,0.01,0.0,-4.5,0.16,0.03
14:38:42.068,0.0,0.01,-0.01,-4.27,0.09,-0.06
14:38:42.075,0.0,-0.0,-0.01,-4.53,-0.04,0.06
14:38:42.082,0.01,0.0,0.0,-4.47,0.07,0.05
14:38:42.089,0.01,0.0,-0.0,-4.53,-0.03,-0.1
14:38:42.097,0.0,0.01,-0.01,-4.47,-0.09,-0.05
14:38:42.104,0.01,0.0,0.01,-4.6,0.04,-0.25
14:38:42.111,0.01,-0.0,-0.0,-4.53,-0.16,0.08
14:38:42.119,0.0,0.01,0.01,-4.53,0.06,0.09
14:38:42.126,-0.0,0.01,0.01,-4.47,0.17,-0.03
14:38:42.133,-0.0,-0.0,-0.0,-4.55,0.1,0.23
14:38:42.140,-0.01,0.01,0.01,-4.6,-0.05,0.1
14:38:42.148,0.0,0.01,0.0,-4.6,0.11,0.11
14:38:42.155,0.01,0.01,0.0,-4.46,-0.13,0.1
14:38:42.162,0.0,-0.01,-0.0,-4.44,0.09,0.11
14:38:42.170,0.01,0.01,-0.0,-4.45,0.04,0.18
14:38:42.177,0.0,0.01,0.0,-4.34,-0.0,-0.06
14:38:42.184,0.01,-0.01,-0.0,-4.48,-0.07,-0.01
14:38:42.191,0.01,0.01,0.0,-4.5,-0.06,0.07
14:38:42.199,0.01,0.01,0.0,-4.4,0.03,-0.06
14:38:42.206,0.01,0.0,-0.0,-4.54,0.04,-0.03
14:38:42.213,-0.0,-0.0,-0.02,-4.51,0.0,0.07
14:38:42.221,-0.0,0.01,-0.0,-4.43,0.02,0.09
14:38:42.228,0.0,0.0,-0.0,-4.41,0.03,0.07
14:38:42.235,0.01,0.01,0.0,-4.48,0.0,0.1
14:38:42.242,0.01,0.02,-0.0,-4.44,0.11,-0.07
14:38:42.250,0.01,0.0,-0.01,-4.44,0.07,0.07
14:38:42.257,0.01,0.01,0.0,-4.66,0.08,-0.0
14:38:42.264,0.0,-0.01,0.01,-4.28,0.08,0.01
14:38:42.272,0.0,0.0,-0.0,-4.49,0.13,-0.22
14:38:42.279,0.0,0.01,-0.0,-4.56,-0.03,0.09
14:38:42.286,-0.0,0.01,0.0,-4.47,-0.03,-0.0
14:38:42.293,0.0,-0.0,0.0,-4.56,0.01,-0.05
14:38:42.301,-0.0,-0.0,-0.01,-4.48,0.1,0.17
14:38:42.308,0.0,-0.01,-0.0,-4.54,0.16,0.05
14:38:42.315,0.0,0.0,0.01,-4.42,0.1,-0.04
14:38:42.322,-0.0,-0.0,0.01,-4.52,-0.01,0.04
14:38:42.330,0.0,0.0,-0.02,-4.44,0.1,-0.07
14:38:42.337,0.0,0.01,-0.01,-4.48,0.04,0.01
14:38:42.344,0.01,0.01,0.0,-4.56,0.14,-0.02
14:38:42.352,0.01,0.01,-0.02,-4.43,-0.13,0.08
14:38:42.359,0.0,0.0,-0.0,-4.53,0.04,0.03
14:38:42.366,0.01,0.0,0.0,-4.44,0.06,0.1
14:38:42.373,0.0,0.01,0.0,-4.42,0.02,-0.12
14:38:42.381,-0.0,0.01,-0.0,-4.4,-0.0,0.03
14:38:42.388,0.0,0.0,0.0,-4.65,0.16,-0.11
14:38:42.395,0.0,0.01,0.0,-4.57,-0.08,-0.13
14:38:42.403,0.0,0.01,0.0,-4.57,-0.05,0.01
14:38:42.410,-0.0,0.01,0.0,-4.5,-0.07,-0.19
14:38:42.417,-0.0,0.0,-0.02,-4.52,0.11,0.14
14:38:42.424,0.0,0.01,-0.01,-4.38,-0.08,0.03
14:38:42.432,-0.0,0.01,0.01,-4.4,-0.07,0.02
14:38:42.439,-0.0,0.01,-0.02,-4.6,-0.06,0.18
14:38:42.446,0.0,0.0,0.0,-4.47,-0.02,0.1
14:38:42.454,0.01,0.0,-0.01,-4.4,-0.03,0.03
14:38:42.461,-0.0,0.01,0.01,-4.47,-0.01,0.23
14:38:42.468,0.01,0.01,-0.0,-4.43,-0.11,0.03
14:38:42.475,0.01,0.0,-0.0,-4.53,-0.06,0.03
14:38:42.483,0.01,0.01,-0.01,-4.45,0.04,0.09
14:38:42.490,0.0,0.01,-0.0,-4.57,-0.06,0.09
14:38:42.497,0.01,0.01,0.0,-4.53,0.1,0.01
14:38:42.504,0.01,0.0,0.0,-4.57,0.05,-0.04
14:38:42.512,0.0,0.01,0.0,-4.51,-0.09,0.1
14:38:42.519,0.01,0.0,-0.0,-4.45,-0.08,-0.06
14:38:42.526,0.0,0.0,-0.0,-4.48,0.1,0.02
14:38:42.534,0.01,0.0,-0.01,-4.6,-0.04,-0.12
14:38:42.541,0.01,0.01,0.01,-4.48,0.13,0.07
14:38:42.548,-0.01,-0.0,-0.01,-4.63,-0.0,-0.0
14:38:42.555,0.0,-0.01,-0.0,-4.47,-0.02,-0.04
14:38:42.563,0.01,0.0,0.01,-4.6,-0.03,0.1
14:38:42.570,0.0,0.01,-0.0,-4.44,-0.0,0.1
14:38:42.577,0.01,0.02,-0.02,-4.46,0.13,-0.16
14:38:42.585,0.01,0.01,-0.0,-4.44,-0.02,-0.04
14:38:42.592,0.01,-0.0,-0.0,-4.56,-0.03,-0.01
14:38:42.599,0.0,0.01,-0.0,-4.44,-0.04,-0.09
14:38:42.607,0.0,0.0,-0.0,-4.58,0.15,-0.19
14:38:42.614,0.0,0.0,-0.01,-4.37,0.01,-0.12
14:38:42.621,0.0,0.01,-0.01,-4.42,-0.03,-0.08
14:38:42.628,0.01,0.01,0.0,-4.34,0.08,0.17
14:38:42.636,0.0,0.0,-0.0,-4.4,0.11,-0.06
14:38:42.643,0.0,0.0,-0.0,-4.58,-0.01,-0.01
14:38:42.650,0.01,0.01,0.01,-4.61,0.08,-0.06
14:38:42.658,0.0,0.02,0.0,-4.47,-0.03,0.01
14:38:42.665,0.0,0.01,0.01,-4.53,0.03,0.04
14:38:42.672,0.0,0.0,-0.0,-4.44,-0.13,-0.03
14:38:42.680,0.01,0.01,-0.0,-4.35,0.01,-0.08
14:38:42.687,0.0,0.0,-0.0,-4.44,0.14,-0.03
14:38:42.694,0.0,0.0,-0.0,-4.45,-0.01,0.01
14:38:42.701,0.01,0.0,0.0,-4.44,0.06,0.16
14:38:42.709,0.0,0.0,-0.01,-4.46,-0.01,0.04
14:38:42.716,0.0,0.01,-0.01,-4.64,0.1,-0.09
14:38:42.723,0.0,0.01,-0.01,-4.39,0.2,0.04
14:38:42.731,0.0,0.0,0.0,-4.54,0.09,0.11
14:38:42.738,-0.0,0.0,0.0,-4.46,-0.08,-0.02
14:38:42.745,0.01,0.0,0.0,-4.42,0.07,0.19
14:38:42.752,0.01,0.01,-0.01,-4.5,0.06,0.08
14:38:42.760,0.0,0.0,-0.0,-4.44,0.02,0.03
14:38:42.767,0.01,0.0,0.01,-4.47,0.06,-0.09
14:38:42.774,0.0,0.0,-0.0,-4.51,-0.04,-0.04
14:38:42.782,0.0,0.01,0.0,-4.43,0.07,0.09
14:38:42.789,0.01,0.01,-0.0,-4.55,0.13,-0.01
14:38:42.796,0.0,0.01,-0.0,-4.53,0.05,-0.11
14:38:42.803,0.0,0.0,-0.0,-4.47,0.07,-0.12
14:38:42.811,0.01,0.01,-0.0,-4.37,0.01,0.08
14:38:42.818,0.0,0.0,-0.02,-4.67,0.03,0.12
14:38:42.825,0.01,0.01,-0.0,-4.63,0.1,0.17
14:38:42.833,0.01,0.01,0.0,-4.52,0.02,0.13
14:38:42.840,0.01,-0.0,-0.0,-4.48,-0.13,0.17
14:38:42.847,0.01,-0.0,0.0,-4.5,-0.0,0.18
14:38:42.854,0.01,0.01,-0.01,-4.48,0.04,0.05
14:38:42.862,0.0,0.01,0.0,-4.44,-0.05,0.08
14:38:42.869,0.01,0.0,-0.0,-4.33,-0.17,-0.09
14:38:42.876,0.01,0.01,-0.01,-4.55,-0.08,-0.08
14:38:42.884,0.0,0.02,-0.0,-4.53,0.16,0.03
14:38:42.891,0.01,0.01,-0.0,-4.4,-0.0,0.05
14:38:42.898,0.01,0.01,0.01,-4.59,-0.03,0.02
14:38:42.905,0.01,0.01,0.0,-4.5,0.04,0.02
14:38:42.913,0.01,0.0,-0.01,-4.53,0.07,0.07
14:38:42.920,0.0,0.01,-0.0,-4.54,0.05,0.04
14:38:42.927,0.01,-0.0,0.0,-4.53,-0.0,-0.0
14:38:42.935,0.01,0.01,-0.01,-4.48,0.16,0.01
14:38:42.942,0.0,0.01,-0.02,-4.54,-0.04,-0.06
14:38:42.949,0.01,0.0,-0.0,-4.4,0.05,-0.05
14:38:42.957,0.0,0.02,-0.01,-4.63,0.07,-0.06
14:38:42.964,0.0,0.01,-0.0,-4.53,0.09,-0.0
14:38:42.971,0.0,0.01,-0.0,-4.46,-0.14,0.16
14:38:42.978,0.01,-0.0,0.0,-4.56,-0.04,-0.03
14:38:42.986,0.01,0.0,-0.0,-4.47,-0.07,-0.09
14:38:42.993,0.01,0.01,-0.0,-4.34,-0.02,0.01
14:38:43.000,-0.0,0.01,0.0,-4.5,-0.06,-0.02
14:38:43.008,0.01,0.01,-0.0,-4.66,0.07,-0.07
14:38:43.015,0.01,-0.0,0.0,-4.4,-0.06,0.07
14:38:43.022,0.0,-0.0,-0.02,-4.53,-0.07,-0.05
14:38:43.029,0.0,0.0,-0.01,-4.5,0.13,-0.0
14:38:43.037,0.0,0.0,-0.01,-4.4,-0.01,-0.07
14:38:43.044,0.0,0.0,-0.01,-4.39,-0.0,-0.03
14:38:43.051,0.0,-0.0,-0.0,-4.6,0.14,-0.12
14:38:43.059,0.01,0.01,0.0,-4.5,0.15,0.05
14:38:43.066,0.0,0.01,-0.0,-4.49,0.07,-0.07
14:38:43.074,0.0,-0.01,-0.0,-4.56,0.01,0.08
14:38:43.081,0.0,0.01,-0.0,-4.35,0.05,0.09
14:38:43.088,0.0,0.0,0.0,-4.5,-0.08,0.01
14:38:43.096,-0.0,0.01,-0.0,-4.55,-0.09,-0.04
14:38:43.103,0.01,0.01,0.0,-4.49,-0.0,-0.03
14:38:43.110,0.0,-0.01,0.01,-4.5,0.04,-0.16
14:38:43.117,0.0,0.0,-0.02,-4.49,0.16,-0.08
14:38:43.125,0.0,0.0,-0.0,-4.48,0.06,0.01
14:38:43.132,0.01,0.0,0.0,-4.6,0.1,-0.06
14:38:43.139,0.0,0.0,-0.0,-4.57,-0.07,0.08
14:38:43.147,0.01,-0.01,-0.01,-4.31,0.12,-0.0
14:38:43.154,0.0,-0.01,-0.01,-4.54,-0.1,0.2
14:38:43.161,-0.0,0.01,0.0,-4.44,-0.08,0.04
14:38:43.169,0.0,-0.01,-0.0,-4.4,0.1,-0.02
14:38:43.176,0.0,0.01,0.01,-4.59,-0.1,-0.0
14:38:43.183,0.01,0.0,-0.0,-4.5,0.0,0.04
14:38:43.190,0.01,0.01,0.01,-4.42,-0.07,-0.06
14:38:43.198,-0.0,0.0,0.01,-4.56,-0.05,0.02
14:38:43.205,-0.0,0.0,-0.0,-4.44,0.07,0.13
14:38:43.212,0.0,0.01,-0.0,-4.45,-0.01,0.01
14:38:43.220,0.0,0.01,0.0,-4.43,0.1,0.08
14:38:43.227,0.0,-0.01,-0.0,-4.4,-0.03,0.04
14:38:43.234,-0.0,-0.0,0.0,-4.5,-0.13,-0.03
14:38:43.241,0.01,0.01,-0.0,-4.56,0.29,-0.09
14:38:43.249,0.01,0.02,0.01,-4.44,-0.02,-0.22
14:38:43.256,0.01,0.01,0.0,-4.44,0.02,0.15
14:38:43.263,0.01,0.0,0.01,-4.38,0.09,-0.11
14:38:43.271,0.01,-0.0,0.0,-4.38,0.2,-0.08
14:38:43.278,0.0,0.0,0.01,-4.43,0.02,-0.13
14:38:43.285,0.0,0.01,-0.0,-4.51,-0.07,-0.06
14:38:43.292,-0.0,0.0,0.0,-4.59,-0.02,0.08
14:38:43.300,-0.0,0.0,0.0,-4.5,-0.08,0.07
14:38:43.307,0.0,0.01,-0.0,-4.56,0.24,0.02
14:38:43.314,0.0,0.02,0.0,-4.42,0.1,-0.09
14:38:43.322,0.0,0.0,0.0,-4.55,0.01,0.01
14:38:43.329,0.01,0.02,-0.0,-4.45,0.04,-0.06
14:38:43.336,0.01,0.01,0.0,-4.45,0.2,-0.12
14:38:43.344,0.01,0.01,-0.0,-4.49,0.04,0.07
14:38:43.351,0.01,0.0,-0.0,-4.56,0.09,0.02
14:38:43.358,0.01,0.0,-0.01,-4.48,0.13,-0.0
14:38:43.366,0.01,0.01,0.0,-4.47,-0.11,-0.06
14:38:43.373,0.01,0.0,0.0,-4.48,-0.16,-0.04
14:38:43.380,0.0,0.0,0.0,-4.53,0.03,-0.13
14:38:43.388,0.0,0.01,-0.01,-4.5,0.04,-0.03
14:38:43.395,0.0,-0.0,-0.01,-4.56,-0.06,0.13
14:38:43.402,0.01,-0.01,-0.0,-4.34,0.01,-0.22
14:38:43.410,0.0,0.01,-0.02,-4.49,-1.69,-0.0
14:38:43.417,0.01,0.01,-0.0,-4.5,0.1,0.01
14:38:43.424,0.0,0.0,0.0,-4.49,0.13,0.01
14:38:43.431,0.0,0.0,-0.0,-4.42,-0.0,0.12
14:38:43.439,0.0,0.01,-0.0,-4.48,-0.06,-0.16
14:38:43.446,-0.0,-0.0,-0.0,-4.31,-0.03,0.03
14:38:43.453,0.0,0.0,0.0,-4.43,0.04,-0.09
14:38:43.461,0.0,0.0,-0.01,-4.55,-0.08,-0.03
14:38:43.468,0.01,0.0,-0.01,-4.48,-0.07,-0.05
14:38:43.475,0.0,0.0,-0.01,-4.54,-0.17,0.05
14:38:43.482,0.0,0.0,-0.0,-4.49,0.04,-0.03
14:38:43.490,0.0,0.02,-0.0,-4.65,-0.07,0.1
14:38:43.497,-0.0,0.0,-0.0,-4.53,0.16,-0.09
14:38:43.504,0.0,-0.0,-0.01,-4.51,-0.03,-0.03
14:38:43.512,0.0,-0.01,0.01,-4.6,-0.08,-0.22
14:38:43.519,-0.01,0.0,-0.0,-4.5,0.02,-0.07
14:38:43.526,0.0,0.0,-0.01,-4.37,0.09,0.17
14:38:43.533,0.0,-0.0,-0.02,-4.5,0.07,0.01
14:38:43.541,0.0,0.01,-0.0,-4.59,-0.09,-0.02
14:38:43.548,0.0,0.02,-0.0,-4.47,-0.01,0.1
14:38:43.555,0.0,0.0,-0.01,-4.56,-0.11,-0.1
14:38:43.563,0.0,0.0,-0.0,-4.45,0.16,0.03
14:38:43.570,0.01,-0.0,-0.02,-4.66,-0.01,0.11
14:38:43.577,0.0,0.01,-0.0,-4.4,-0.03,0.16
14:38:43.585,-0.0,0.0,0.01,-4.45,-0.06,0.17
14:38:43.592,0.01,0.01,-0.02,-4.47,0.17,0.07
14:38:43.599,0.01,0.0,0.0,-4.46,0.1,0.02
14:38:43.606,0.0,-0.01,0.0,-4.44,-0.03,0.01
14:38:43.614,0.01,0.0,-0.0,-4.44,0.0,0.06
14:38:43.621,0.01,0.01,0.0,-4.44,0.04,0.07
14:38:43.628,0.01,0.01,0.0,-4.43,0.02,-0.1
14:38:43.636,0.0,0.01,-0.0,-4.57,-0.0,-0.06
14:38:43.643,0.01,0.01,-0.0,-4.48,0.12,-0.13
14:38:43.650,0.0,0.0,0.0,-4.38,-0.09,-0.07
14:38:43.657,0.0,0.0,-0.01,-4.57,0.07,0.07
14:38:43.665,0.0,-0.01,-0.0,-4.73,0.07,0.03
14:38:43.672,-0.0,0.0,-0.0,-4.6,0.06,-0.08
14:38:43.679,-0.0,0.0,0.0,-4.6,0.04,-0.01
14:38:43.687,0.01,-0.0,-0.0,-4.57,-0.05,-0.05
14:38:43.694,0.01,0.0,-0.01,-4.52,0.15,-0.06
14:38:43.701,0.0,0.0,-0.01,-4.42,0.0,0.02
14:38:43.708,-0.0,0.0,-0.01,-4.44,0.04,-0.05
14:38:43.716,-0.0,0.0,-0.0,-4.36,-0.13,0.27
14:38:43.723,0.01,0.02,-0.0,-4.44,0.1,-0.14
14:38:43.730,0.0,0.01,0.01,-4.46,0.03,-0.04
14:38:43.738,0.0,-0.0,-0.0,-4.47,-0.07,0.01
14:38:43.745,0.0,0.0,-0.0,-4.51,-0.03,-0.03
14:38:43.752,0.0,0.0,-0.0,-4.48,0.05,0.04
14:38:43.760,0.01,0.01,-0.0,-4.46,-0.01,0.06
14:38:43.767,0.0,-0.0,0.01,-4.53,-0.06,-0.0
14:38:43.774,0.01,0.01,0.0,-4.47,0.06,-0.1
14:38:43.781,0.01,0.01,-0.0,-4.47,0.07,0.06
14:38:43.789,0.0,-0.01,0.01,-4.47,-0.03,-0.07
14:38:43.796,0.01,0.0,0.0,-4.52,-0.1,-0.05
14:38:43.803,0.0,0.01,0.0,-4.5,0.05,0.08
14:38:43.811,0.0,0.02,0.01,-4.45,-0.08,0.04
14:38:43.818,0.0,-0.0,-0.0,-4.59,0.06,0.12
14:38:43.825,0.0,-0.0,-0.0,-4.4,0.15,0.13
14:38:43.832,0.0,0.0,-0.02,-4.4,0.13,-0.03
14:38:43.840,-0.0,0.01,0.01,-4.6,-0.12,0.2
14:38:43.847,0.01,0.01,-0.0,-4.44,-0.04,0.12
14:38:43.854,0.0,0.01,0.0,-4.39,-0.2,-0.04
14:38:43.862,0.0,0.01,-0.0,-4.65,0.04,-0.06
14:38:43.869,0.01,0.0,-0.0,-4.6,0.15,0.01
14:38:43.876,0.0,0.0,0.0,-4.49,-0.0,0.07
14:38:43.883,0.0,-0.0,-0.0,-4.4,0.1,0.04
14:38:43.891,0.0,-0.01,0.0,-4.47,-0.09,-0.04
14:38:43.898,0.0,0.0,-0.0,-4.52,0.01,0.11
14:38:43.905,0.01,0.01,-0.0,-4.52,0.04,0.01
14:38:43.912,0.01,0.01,-0.0,-4.56,-0.03,0.1
14:38:43.920,0.0,-0.0,0.0,-4.58,0.12,-0.09
14:38:43.927,0.01,0.0,0.01,-4.53,-0.04,-0.09
14:38:43.934,0.0,0.0,-0.01,-4.51,-0.06,0.13
14:38:43.942,0.0,0.0,-0.0,-4.54,0.07,0.04
14:38:43.949,0.0,0.01,-0.02,-4.51,0.02,0.06
14:38:43.956,0.0,0.0,-0.02,-4.5,-0.05,0.08
14:38:43.964,0.01,0.0,-0.01,-4.5,-0.09,0.05
14:38:43.971,0.0,0.0,-0.0,-4.55,0.05,-0.07
14:38:43.978,0.01,0.0,0.01,-4.52,-0.19,0.26
14:38:43.985,0.0,0.0,-0.0,-4.43,-0.04,-0.0
14:38:43.993,-0.0,0.02,-0.01,-4.37,0.1,0.01
14:38:44.000,0.0,0.0,-0.0,-4.37,0.11,0.04
14:38:44.007,0.0,0.0,-0.01,-4.44,0.1,0.06
14:38:44.015,0.0,0.01,-0.02,-4.5,0.05,0.11
14:38:44.022,0.0,-0.0,0.0,-4.56,0.01,-0.02
14:38:44.029,0.01,0.01,-0.01,-4.37,-0.11,0.04
14:38:44.036,0.01,0.0,0.01,-4.4,0.09,-0.06
14:38:44.044,0.0,0.01,-0.0,-4.56,0.08,-0.02
14:38:44.051,0.0,0.0,-0.02,-4.53,-0.05,0.02
14:38:44.058,0.0,-0.0,0.0,-4.54,0.03,-0.13
14:38:44.066,0.0,0.01,0.0,-4.44,0.1,0.01
14:38:44.073,0.0,0.0,-0.0,-4.5,0.08,-0.14
14:38:44.081,-0.0,0.01,0.0,-4.37,0.01,0.14
14:38:44.088,0.01,0.02,0.01,-4.44,0.01,0.02
14:38:44.095,0.01,-0.0,-0.01,-4.5,-0.04,-0.03
14:38:44.102,0.0,0.01,-0.0,-4.39,-0.05,0.06
14:38:44.110,0.0,0.01,-0.0,-4.5,-0.08,-0.06
14:38:44.117,0.0,0.0,-0.01,-4.45,0.07,-0.03
14:38:44.124,0.0,0.01,-0.0,-4.4,-0.06,-0.05
14:38:44.132,-0.0,0.0,-0.0,-4.46,0.03,0.1
14:38:44.139,0.0,0.01,0.0,-4.46,-0.14,0.08
14:38:44.146,-0.0,0.01,-0.02,-4.44,0.08,0.15
14:38:44.154,0.0,0.01,0.0,-4.47,0.15,-0.01
14:38:44.161,0.01,-0.0,-0.0,-4.4,0.04,-0.15
14:38:44.168,0.01,0.01,0.0,-4.5,-0.03,0.11
14:38:44.175,0.01,0.0,-0.01,-4.5,0.16,0.13
14:38:44.183,0.0,0.01,0.01,-4.63,0.03,0.09
14:38:44.190,0.0,-0.0,0.01,-4.49,0.1,0.07
14:38:44.197,0.0,0.0,-0.01,-4.36,-0.09,0.1
14:38:44.205,0.01,0.01,-0.01,-4.48,-0.08,0.14
14:38:44.212,-0.0,0.01,-0.0,-4.46,0.13,-0.02
14:38:44.219,0.0,0.01,0.0,-4.5,-0.06,0.09
14:38:44.226,0.01,0.02,-0.0,-4.64,0.04,0.14
14:38:44.234,0.0,0.0,-0.0,-4.4,0.09,0.06
14:38:44.241,0.01,0.01,0.0,-4.49,-0.05,-0.06
14:38:44.248,0.0,0.01,0.0,-4.48,0.08,-0.05
14:38:44.256,0.0,-0.0,-0.0,-4.6,-0.1,0.07
14:38:44.263,0.01,0.01,0.0,-4.38,-1.68,0.1
14:38:44.270,0.01,0.0,-0.01,-4.37,-0.12,0.07
14:38:44.277,0.01,0.01,-0.0,-4.58,0.03,-0.0
14:38:44.285,0.01,-0.01,0.0,-4.64,-0.03,0.07
14:38:44.292,0.0,0.0,-0.01,-4.63,0.08,-0.09
14:38:44.299,-0.0,0.01,-0.0,-4.44,0.2,0.02
14:38:44.307,0.01,0.0,-0.0,-4.37,0.0,0.07
14:38:44.314,0.01,0.0,-0.0,-4.49,-0.07,-0.09
14:38:44.321,-0.0,0.01,0.0,-4.64,0.01,-0.05
14:38:44.329,0.01,0.01,-0.0,-4.49,-0.03,0.01
14:38:44.336,0.01,-0.0,-0.0,-4.4,-0.07,0.02
14:38:44.343,0.01,0.01,0.0,-4.58,-0.1,-0.09
14:38:44.350,0.01,0.0,-0.0,-4.5,-0.16,-0.03
14:38:44.358,-0.0,0.01,0.01,-4.49,-0.0,-0.0
14:38:44.365,0.01,0.01,0.0,-4.41,-0.07,-0.0
14:38:44.372,0.01,0.02,-0.02,-4.54,0.09,-0.07
14:38:44.380,0.01,0.0,-0.01,-4.53,0.06,0.07
14:38:44.387,0.02,0.01,-0.01,-4.71,-0.0,0.12
14:38:44.394,-0.0,-0.0,0.0,-4.47,-0.09,-0.07
14:38:44.401,0.01,0.01,-0.0,-4.43,-0.0,0.04
14:38:44.409,0.0,0.01,0.0,-4.39,0.04,-0.06
14:38:44.416,0.01,-0.0,-0.01,-4.45,-0.12,0.07
14:38:44.423,0.0,0.0,0.0,-4.47,-0.01,-0.19
14:38:44.430,0.01,0.02,-0.0,-4.55,-0.13,0.03
14:38:44.438,0.0,-0.0,-0.0,-4.52,0.02,-0.02
14:38:44.445,0.0,0.0,0.0,-4.49,0.06,0.01
14:38:44.452,0.0,0.0,0.0,-4.4,0.13,-0.02
14:38:44.460,-0.0,0.01,0.0,-4.47,0.1,-0.1
14:38:44.467,0.0,0.0,-0.0,-4.58,-0.03,0.25
14:38:44.474,0.0,-0.0,-0.0,-4.53,0.13,0.01
14:38:44.481,0.01,0.01,-0.0,-4.37,-0.02,-0.1
14:38:44.489,0.0,-0.01,-0.01,-4.46,0.01,0.02
14:38:44.496,0.0,0.0,-0.01,-4.38,-0.09,-0.08
14:38:44.503,-0.0,0.0,-0.0,-4.4,0.18,0.03
14:38:44.511,0.0,0.0,-0.0,-4.32,-0.07,0.13
14:38:44.518,0.0,0.0,0.01,-4.49,-0.0,0.01
14:38:44.525,0.01,0.0,0.0,-4.46,-0.11,-0.0
14:38:44.533,0.0,0.01,-0.0,-4.46,-0.13,-0.05
14:38:44.540,0.0,0.0,-0.01,-4.39,-0.03,0.05
14:38:44.547,-0.0,0.0,-0.01,-4.4,0.1,0.08
14:38:44.554,0.0,0.01,-0.0,-4.6,-0.06,-0.03
14:38:44.562,0.0,0.01,-0.0,-4.6,0.19,0.07
14:38:44.569,0.0,-0.01,-0.01,-4.55,0.0,0.07
14:38:44.576,0.01,-0.0,0.01,-4.44,0.04,-0.03
14:38:44.584,0.0,0.0,-0.0,-4.46,0.04,0.05
14:38:44.591,0.01,0.01,-0.0,-4.38,0.0,0.1
14:38:44.598,0.01,0.01,-0.01,-4.54,-0.03,0.01
14:38:44.605,0.0,0.01,-0.01,-4.45,0.06,0.07
14:38:44.613,0.01,0.01,0.01,-4.43,0.01,-0.03
14:38:44.620,0.0,0.01,-0.0,-4.51,0.13,0.01
14:38:44.627,0.0,0.0,-0.0,-4.5,0.07,-0.09
14:38:44.635,-0.0,0.0,-0.0,-4.44,0.13,0.08
14:38:44.642,0.0,0.01,-0.01,-4.47,0.19,0.01
14:38:44.649,0.0,0.01,-0.0,-4.56,-0.22,0.07
14:38:44.657,0.0,0.0,0.0,-4.54,0.11,0.02
14:38:44.664,0.0,0.0,-0.0,-4.48,0.06,0.03
14:38:44.671,0.0,0.01,-0.0,-4.53,0.1,-0.0
14:38:44.678,0.0,0.0,-0.01,-4.41,-0.03,0.07
14:38:44.686,-0.0,0.0,-0.0,-4.45,0.05,0.01
14:38:44.693,-0.0,0.0,0.0,-4.53,0.07,-0.06
14:38:44.701,0.01,0.0,0.0,-4.6,0.05,-0.01
14:38:44.708,0.01,0.02,-0.0,-4.79,0.04,-0.05
14:38:44.715,0.0,0.0,-0.0,-4.56,0.1,0.06
14:38:44.722,-0.0,0.01,-0.0,-4.56,-0.13,0.05
14:38:44.730,0.0,0.01,-0.02,-4.61,0.08,0.17
14:38:44.737,-0.0,0.01,-0.0,-4.6,0.08,0.05
14:38:44.744,0.0,-0.01,-0.0,-4.41,-0.0,0.12
14:38:44.752,0.0,0.0,-0.0,-4.5,0.1,-0.03
14:38:44.759,0.01,0.01,-0.0,-4.48,0.14,0.09
14:38:44.766,0.0,0.0,0.0,-4.47,0.2,-0.02
14:38:44.773,0.01,-0.0,-0.0,-4.45,0.07,-0.07
14:38:44.781,0.01,0.0,0.0,-4.53,0.13,-0.02
14:38:44.788,-0.0,0.0,0.0,-4.34,-0.01,-0.09
14:38:44.795,0.0,0.01,0.0,-4.46,0.11,0.1
14:38:44.803,-0.0,0.0,-0.0,-4.43,0.06,0.07
14:38:44.810,0.0,0.01,-0.0,-4.55,0.04,0.13
14:38:44.817,0.01,-0.0,-0.0,-4.55,-0.08,-0.07
14:38:44.824,0.01,0.01,-0.0,-4.5,-0.04,-0.03
14:38:44.832,0.01,0.01,0.0,-4.43,0.07,0.07
14:38:44.839,0.0,0.01,-0.0,-4.42,-0.1,-0.18
14:38:44.846,0.01,0.02,0.0,-4.45,0.02,0.03
14:38:44.854,0.0,0.0,0.0,-4.4,-0.08,0.1
14:38:44.861,0.0,0.0,-0.0,-4.33,-0.1,-0.08
14:38:44.868,0.0,0.01,0.0,-4.45,-0.08,0.03
14:38:44.875,0.0,0.0,0.0,-4.27,-0.0,0.11
14:38:44.883,0.01,0.0,-0.0,-4.57,-0.1,0.02
14:38:44.890,-0.0,-0.01,-0.02,-4.36,0.06,-0.0
14:38:44.897,0.01,0.0,0.0,-4.49,-0.07,0.07
14:38:44.905,0.01,0.0,0.0,-4.46,-0.06,0.25
14:38:44.912,-0.0,0.0,0.0,-4.39,0.02,-0.11
14:38:44.919,0.0,-0.0,-0.0,-4.46,0.04,-0.05
14:38:44.927,0.0,0.0,-0.02,-4.44,0.18,0.04
14:38:44.934,0.0,0.01,-0.0,-4.51,0.05,0.04
14:38:44.941,0.0,0.0,-0.0,-4.57,0.02,0.02
14:38:44.948,0.01,0.0,-0.01,-4.47,0.03,0.13
14:38:44.956,0.0,0.0,-0.01,-4.34,0.12,0.01
14:38:44.963,0.01,0.0,0.0,-4.58,-0.03,0.05
14:38:44.970,0.01,0.01,0.01,-4.49,0.2,0.03
14:38:44.977,0.01,0.0,-0.01,-4.49,-0.07,0.06
14:38:44.985,0.01,0.0,0.0,-4.48,0.06,0.09
14:38:44.992,-0.0,0.0,0.0,-4.47,0.07,0.08
14:38:44.999,0.0,0.01,0.01,-4.54,0.13,-0.03
14:38:45.007,0.01,0.0,-0.01,-4.37,-0.02,-0.12
14:38:45.014,0.0,0.0,0.0,-4.51,-0.03,0.04
14:38:45.021,0.0,0.0,-0.01,-4.48,-0.02,-0.02
14:38:45.028,0.0,0.0,-0.0,-4.41,0.04,-0.1
14:38:45.036,0.0,-0.0,-0.0,-4.52,-0.01,0.07
14:38:45.043,0.0,0.01,0.0,-4.47,0.06,-0.05
14:38:45.050,0.0,0.01,0.01,-4.39,0.1,0.07
14:38:45.058,0.0,0.01,-0.0,-4.46,-0.04,-0.14
14:38:45.065,0.01,0.0,-0.0,-4.41,0.01,0.02
14:38:45.072,0.0,0.01,0.01,-4.65,-0.09,-0.11
14:38:45.080,0.0,0.0,0.0,-4.45,-0.04,0.01
14:38:45.087,0.01,0.01,-0.0,-4.6,-0.05,0.08
14:38:45.094,0.01,0.0,-0.0,-4.48,0.06,0.05
14:38:45.102,0.0,0.0,-0.01,-4.4,0.01,-0.08
14:38:45.109,-0.0,0.01,-0.0,-4.4,0.12,0.01
14:38:45.116,0.01,0.01,-0.0,-4.53,0.18,0.06
14:38:45.124,0.01,0.0,-0.0,-4.58,-0.0,-0.06
14:38:45.131,0.0,-0.0,0.0,-4.44,-0.08,0.11
14:38:45.138,0.0,0.0,-0.01,-4.48,-0.07,-0.11
14:38:45.146,0.01,0.01,0.0,-4.4,0.04,0.1
14:38:45.153,0.0,0.0,0.0,-4.47,-0.08,0.12
14:38:45.160,0.0,0.0,0.0,-4.51,0.09,0.1
14:38:45.167,0.0,0.01,0.0,-4.38,-0.02,0.05
14:38:45.175,0.0,0.0,0.0,-4.4,0.17,0.06
14:38:45.182,-0.0,0.01,0.0,-4.44,-0.08,-0.04
14:38:45.189,0.0,0.0,0.0,-4.58,-0.0,-0.01
14:38:45.197,0.0,0.0,-0.0,-4.4,0.08,-0.22
14:38:45.204,0.01,0.0,0.0,-4.54,0.16,-0.06
14:38:45.211,0.0,0.0,0.01,-4.47,0.07,0.02
14:38:45.218,0.01,0.01,-0.0,-4.49,0.14,0.02
14:38:45.226,0.0,0.02,0.0,-4.44,0.07,0.14
14:38:45.233,0.01,0.01,-0.01,-4.5,-0.01,-0.03
14:38:45.240,0.01,0.0,-0.0,-4.38,0.05,-0.12
14:38:45.248,0.01,0.0,0.0,-4.4,-0.06,0.07
14:38:45.255,0.01,0.0,0.0,-4.49,-0.04,-0.03
14:38:45.262,0.0,0.01,-0.0,-4.52,0.08,-0.09
14:38:45.270,0.01,0.01,-0.01,-4.49,0.09,-0.06
14:38:45.277,0.01,0.0,-0.0,-4.4,0.05,0.06
14:38:45.284,0.0,0.0,-0.0,-4.47,0.07,0.04
14:38:45.291,0.0,0.01,0.0,-4.52,0.3,-0.08
14:38:45.299,0.0,0.01,0.0,-4.54,0.13,0.11
14:38:45.306,0.0,0.0,-0.0,-4.51,0.16,-0.03
14:38:45.313,0.0,0.0,-0.0,-4.5,0.03,0.03
14:38:45.321,0.0,0.01,-0.0,-4.56,-0.09,-0.09
14:38:45.328,0.0,0.0,-0.0,-4.52,-0.06,0.17
14:38:45.335,0.0,0.0,-0.01,-4.55,-0.03,0.01
14:38:45.342,0.0,-0.01,-0.0,-4.42,0.08,0.02
14:38:45.350,0.0,-0.0,-0.0,-4.5,0.2,0.16
14:38:45.357,0.0,-0.0,-0.0,-4.42,0.07,0.15
14:38:45.364,0.01,0.01,-0.01,-4.5,-0.04,-0.04
14:38:45.372,-0.0,0.0,-0.0,-4.53,0.07,-0.06
14:38:45.379,0.0,0.0,0.01,-4.3,0.09,-0.02
14:38:45.386,0.0,0.01,-0.0,-4.52,0.11,0.01
14:38:45.393,-0.0,0.01,0.0,-4.54,0.19,0.04
14:38:45.401,0.0,0.01,-0.01,-4.64,-0.19,0.13
14:38:45.408,0.01,0.0,0.01,-4.6,0.04,0.04
14:38:45.415,0.01,0.01,-0.0,-4.4,-0.12,-0.06
14:38:45.423,0.0,-0.0,-0.0,-4.31,-0.15,-0.03
14:38:45.430,0.0,0.0,0.0,-4.54,-0.0,-0.03
14:38:45.437,0.0,0.0,-0.0,-4.37,0.01,-0.06
14:38:45.445,0.0,0.0,-0.01,-4.56,-0.03,0.01
14:38:45.452,0.0,-0.0,-0.01,-4.35,0.16,-0.05
14:38:45.459,0.0,0.0,0.0,-4.51,0.05,-0.02
14:38:45.466,0.01,0.01,-0.0,-4.53,-0.0,0.09
14:38:45.474,0.01,0.0,-0.0,-4.63,0.05,0.04
14:38:45.481,0.0,0.02,-0.0,-4.31,0.09,0.03
14:38:45.488,0.0,-0.01,0.01,-4.51,-0.05,0.01
14:38:45.496,0.01,0.0,-0.0,-4.47,-0.05,0.01
14:38:45.503,0.01,0.01,-0.0,-4.44,-0.08,0.07
14:38:45.510,0.0,0.0,-0.0,-4.4,-0.04,0.04
14:38:45.517,0.0,0.0,-0.0,-4.47,0.09,-0.01
14:38:45.525,0.01,0.01,-0.0,-4.44,0.04,0.06
14:38:45.532,0.01,0.01,0.0,-4.44,0.03,-0.08
14:38:45.539,0.01,-0.01,-0.01,-4.47,0.04,0.04
14:38:45.547,0.01,0.0,-0.01,-4.47,0.1,-0.09
14:38:45.554,0.01,0.01,-0.0,-4.46,0.01,-0.0
14:38:45.561,0.01,0.0,0.0,-4.52,0.02,0.1
14:38:45.568,0.01,-0.01,-0.0,-4.49,0.04,-0.16
14:38:45.576,0.01,0.01,-0.0,-4.56,-0.06,0.08
14:38:45.583,0.0,0.02,0.0,-4.6,0.02,-0.0
14:38:45.590,0.0,-0.0,-0.01,-4.42,-0.03,-0.06
14:38:45.598,-0.0,0.01,-0.0,-4.51,0.13,-0.0
14:38:45.605,-0.0,0.01,0.0,-4.55,-0.03,0.1
14:38:45.612,0.0,0.01,-0.0,-4.4,0.1,-0.0
14:38:45.620,0.01,0.0,0.0,-4.53,-0.06,-0.04
14:38:45.627,-0.0,0.02,0.0,-4.43,-0.04,0.2
14:38:45.634,0.0,0.0,-0.01,-4.52,0.1,0.13
14:38:45.641,0.0,0.02,0.0,-4.44,0.0,0.04
14:38:45.649,0.01,0.0,-0.0,-4.41,-0.03,0.04
14:38:45.656,0.0,0.01,-0.0,-4.49,0.07,0.13
14:38:45.663,0.0,0.01,-0.01,-4.53,-0.01,0.04
14:38:45.671,0.01,-0.01,0.0,-4.51,-0.09,0.01
14:38:45.678,0.01,0.01,0.0,-4.45,-0.03,-0.07
14:38:45.685,0.01,0.01,0.0,-4.53,-0.04,0.09
14:38:45.692,0.0,0.01,-0.01,-4.43,0.16,-0.05
14:38:45.700,0.01,0.01,-0.0,-4.53,0.16,0.08
14:38:45.707,0.0,0.0,0.01,-4.4,-0.05,0.12
14:38:45.714,0.01,0.0,0.0,-4.56,-0.03,-0.1
14:38:45.722,0.0,0.0,-0.0,-4.63,-0.16,0.01
14:38:45.729,0.0,0.01,-0.0,-4.51,-0.19,0.04
14:38:45.736,0.0,0.0,-0.0,-4.46,-0.02,0.17
14:38:45.743,0.01,0.0,-0.02,-4.48,0.09,0.2
14:38:45.751,0.0,0.01,-0.02,-4.53,-0.09,0.02
14:38:45.758,0.01,0.0,-0.0,-4.53,0.14,-0.1
14:38:45.765,0.0,0.02,0.01,-4.47,0.16,-0.05
14:38:45.773,0.01,-0.0,0.0,-4.39,0.1,0.08
14:38:45.780,0.0,0.0,0.0,-4.62,0.18,0.13
14:38:45.787,0.0,-0.0,0.0,-4.37,-0.01,-0.02
14:38:45.794,-0.0,0.0,0.0,-4.63,-0.06,0.04
14:38:45.802,0.01,0.01,-0.01,-4.33,0.1,0.1
14:38:45.809,0.0,0.02,-0.0,-4.68,-0.06,-0.07
14:38:45.816,0.01,0.01,-0.0,-4.58,-0.01,0.17
14:38:45.823,-0.0,0.01,-0.0,-4.47,0.2,0.13
14:38:45.831,-0.0,0.02,-0.0,-4.58,0.01,-0.05
14:38:45.838,0.0,0.01,-0.0,-4.38,-0.08,-0.08
14:38:45.845,0.01,0.01,-0.01,-4.44,0.1,-0.02
14:38:45.853,0.0,-0.0,0.0,-4.62,0.05,0.12
14:38:45.860,0.0,0.01,-0.0,-4.5,-0.06,0.06
14:38:45.867,0.01,0.01,-0.0,-4.43,0.17,0.22
14:38:45.874,-0.0,0.0,0.0,-4.49,0.14,0.07
14:38:45.882,0.0,0.01,-0.01,-4.41,0.11,0.2
14:38:45.889,0.0,0.0,-0.0,-4.47,-0.16,-0.0
14:38:45.896,0.01,0.02,-0.0,-4.47,-0.0,-0.0
14:38:45.903,0.0,0.0,-0.01,-4.3,0.04,-0.06
14:38:45.911,0.0,0.01,-0.0,-4.5,0.0,0.01
14:38:45.918,0.0,0.02,-0.0,-4.64,0.05,-0.01
14:38:45.925,0.0,0.0,0.0,-4.4,-0.04,-0.06
14:38:45.932,-0.0,-0.0,-0.0,-4.5,0.03,0.13
14:38:45.940,0.0,0.0,-0.01,-4.38,0.12,0.07
14:38:45.947,-0.0,0.01,0.0,-4.31,0.13,-0.07
14:38:45.954,0.01,0.01,0.01,-4.51,0.04,0.06
14:38:45.962,0.01,0.0,-0.0,-4.28,0.11,-0.04
14:38:45.969,-0.0,0.01,-0.01,-4.62,-0.01,-0.04
14:38:45.976,0.0,0.0,0.0,-4.57,0.01,-0.1
14:38:45.983,0.0,-0.0,-0.0,-4.44,-0.04,-0.18
14:38:45.991,0.0,0.0,-0.01,-4.5,0.11,0.06
14:38:45.998,0.01,0.0,-0.0,-4.44,-0.03,-0.03
14:38:46.005,0.0,-0.0,-0.01,-4.44,0.02,0.01
14:38:46.013,0.0,0.01,0.01,-4.44,-0.0,-0.17
14:38:46.020,0.0,-0.0,0.0,-4.36,0.0,0.02
14:38:46.027,0.0,0.0,-0.0,-4.63,0.1,0.02
14:38:46.034,0.0,0.0,-0.0,-4.48,-0.03,-0.0
14:38:46.042,0.01,0.0,-0.0,-4.36,0.11,-0.04
14:38:46.049,0.0,0.01,0.0,-4.69,0.11,0.06
14:38:46.057,0.01,0.0,0.01,-4.53,0.04,0.07
14:38:46.064,-0.0,0.01,-0.0,-4.44,0.12,0.07
14:38:46.071,0.0,0.0,0.0,-4.56,-0.16,0.07
14:38:46.079,0.01,0.01,-0.01,-4.51,0.1,-0.03
14:38:46.086,-0.0,-0.01,0.01,-4.59,-0.06,0.04
14:38:46.093,0.0,0.01,-0.0,-4.47,0.02,0.23
14:38:46.101,0.0,0.0,-0.01,-4.46,-0.13,0.09
14:38:46.108,0.0,0.01,0.0,-4.46,0.06,-0.04
14:38:46.115,-0.0,0.01,-0.0,-4.56,0.01,-0.03
14:38:46.123,0.01,0.01,0.0,-4.43,0.1,0.08
14:38:46.130,0.0,0.0,-0.01,-4.52,0.05,-0.04
14:38:46.137,0.01,0.0,0.0,-4.5,0.07,-0.03
14:38:46.145,0.0,0.02,-0.0,-4.53,0.13,0.16
14:38:46.152,0.0,0.0,-0.01,-4.56,0.04,0.1
14:38:46.159,0.0,0.01,-0.01,-4.5,0.01,0.01
14:38:46.166,-0.0,-0.01,0.0,-4.46,0.08,0.05
14:38:46.174,0.0,0.01,0.01,-4.44,0.05,-0.06
14:38:46.181,0.0,0.0,-0.0,-4.61,-0.06,0.02
14:38:46.188,-0.0,-0.01,0.01,-4.59,2.11,0.01
14:38:46.196,0.0,0.0,-0.0,-4.54,0.05,0.17
14:38:46.203,0.0,0.0,0.0,-4.48,0.07,-0.01
14:38:46.210,0.0,0.0,-0.0,-4.44,-0.0,0.04
14:38:46.217,0.0,0.01,0.0,-4.5,0.15,0.01
14:38:46.225,0.0,0.0,0.0,-4.54,0.07,0.05
14:38:46.232,0.01,0.02,0.0,-4.55,-0.01,0.06
14:38:46.239,0.0,0.01,-0.0,-4.57,-0.0,0.05
14:38:46.247,0.0,0.0,-0.0,-4.44,0.04,0.13
14:38:46.254,0.01,0.0,-0.01,-4.67,0.07,-0.01
14:38:46.261,0.0,0.01,-0.0,-4.53,-0.06,0.04
14:38:46.268,0.0,0.01,0.0,-4.39,-0.06,-0.16
14:38:46.276,0.01,-0.0,-0.0,-4.5,0.12,-0.03
14:38:46.283,0.01,0.01,0.0,-4.4,0.13,-0.04
14:38:46.290,0.0,0.0,0.0,-4.47,0.03,-0.01
14:38:46.298,0.0,0.0,0.0,-4.61,-0.04,-0.16
14:38:46.305,0.01,-0.01,0.0,-4.5,-0.03,0.04
14:38:46.312,0.0,0.01,0.01,-4.49,0.05,0.01
14:38:46.320,0.0,-0.0,0.0,-4.34,0.16,-0.06
14:38:46.327,-0.0,0.01,0.0,-4.58,0.32,-0.12
14:38:46.334,0.0,0.0,0.01,-4.49,0.11,-0.07
14:38:46.341,0.01,0.0,0.0,-4.48,0.04,0.06
14:38:46.349,0.01,0.0,0.0,-4.49,0.06,-0.03
14:38:46.356,0.01,0.01,0.0,-4.49,-0.06,0.08
14:38:46.363,0.01,-0.01,-0.0,-4.44,0.09,-0.13
14:38:46.371,0.0,0.02,0.01,-4.39,0.09,-0.12
14:38:46.378,0.01,0.0,-0.0,-4.48,-0.04,-0.02
14:38:46.385,0.01,0.02,-0.02,-4.38,0.06,-0.14
14:38:46.392,0.01,0.0,0.0,-4.47,0.1,-0.03
14:38:46.400,0.0,0.01,0.0,-4.48,0.03,-0.09
14:38:46.407,0.01,0.0,0.0,-4.53,0.02,-0.0
14:38:46.414,0.01,0.01,-0.0,-4.4,0.03,-0.09
14:38:46.422,0.01,0.0,-0.0,-4.56,-0.06,-0.07
14:38:46.429,-0.0,0.02,0.0,-4.57,0.11,0.01
14:38:46.436,0.0,0.0,-0.0,-4.61,0.07,0.06
14:38:46.443,0.0,0.01,-0.0,-4.5,0.06,0.05
14:38:46.451,-0.0,0.0,-0.0,-4.53,-0.07,-0.03
14:38:46.458,0.01,0.01,-0.0,-4.5,-0.0,0.15
14:38:46.465,-0.0,0.01,-0.0,-4.47,0.09,-0.04
14:38:46.473,0.01,0.0,-0.0,-4.55,-0.04,-0.03
14:38:46.480,0.0,0.01,-0.0,-4.6,-0.06,0.07
14:38:46.487,0.0,0.01,0.0,-4.47,-0.02,-0.09
14:38:46.495,0.0,0.0,-0.01,-4.5,0.23,-0.06
14:38:46.502,0.0,0.0,-0.0,-4.46,-0.05,-0.06
14:38:46.509,-0.0,0.0,-0.02,-4.54,-0.06,0.08
14:38:46.516,0.0,-0.0,-0.01,-4.53,0.01,-0.0
14:38:46.524,0.01,0.0,-0.0,-4.41,0.12,0.14
14:38:46.531,0.0,-0.0,0.01,-4.64,0.01,-0.03
14:38:46.538,0.01,0.01,-0.0,-4.42,0.02,0.04
14:38:46.545,0.0,-0.0,-0.01,-4.43,-0.03,-0.07
14:38:46.553,0.0,0.01,0.01,-4.52,-0.14,0.01
14:38:46.560,0.0,0.01,0.01,-4.39,0.06,-0.03
14:38:46.567,0.0,0.01,0.0,-4.39,-0.16,-0.02
14:38:46.575,0.0,-0.01,0.01,-4.47,-0.11,0.15
14:38:46.582,-0.0,0.01,-0.01,-4.51,-0.03,0.25
14:38:46.589,0.0,-0.01,-0.0,-4.53,0.02,-0.09
14:38:46.597,0.0,0.0,0.0,-4.51,-0.09,-0.03
14:38:46.604,0.01,0.02,0.0,-4.6,-0.06,-0.09
14:38:46.611,0.0,0.0,0.0,-4.45,-0.18,0.05
14:38:46.618,0.0,0.01,0.0,-4.56,-0.03,0.05
14:38:46.626,0.0,0.01,-0.01,-4.45,-0.08,0.03
14:38:46.633,0.0,-0.0,0.01,-4.38,-0.09,0.1
14:38:46.640,0.0,0.0,-0.0,-4.54,-0.08,0.1
14:38:46.648,0.01,0.0,0.0,-4.53,0.05,0.08
14:38:46.655,0.01,0.01,-0.0,-4.37,-0.06,0.09
14:38:46.662,0.01,0.01,0.0,-4.7,0.06,0.13
14:38:46.670,0.0,0.0,-0.01,-4.55,-0.05,0.04
14:38:46.677,0.0,0.01,0.0,-4.65,0.05,-0.04
14:38:46.684,0.0,0.0,-0.01,-4.41,0.1,-0.07
14:38:46.691,0.0,0.0,-0.02,-4.53,-0.09,0.13
14:38:46.699,0.01,0.01,-0.01,-4.48,0.02,0.01
14:38:46.706,-0.0,0.01,-0.01,-4.42,-0.13,-0.03
14:38:46.713,0.0,0.01,0.0,-4.43,0.02,-0.03
14:38:46.720,0.01,0.0,-0.01,-4.48,0.01,0.08
14:38:46.728,0.01,-0.01,0.0,-4.6,0.09,-0.11
14:38:46.735,0.0,-0.01,0.0,-4.35,0.04,0.01
14:38:46.742,0.0,0.0,0.0,-4.38,-0.16,0.03
14:38:46.750,0.01,0.0,-0.0,-4.42,-0.04,-0.13
14:38:46.757,0.0,-0.01,-0.0,-4.53,-0.03,0.1
14:38:46.764,0.01,-0.0,0.0,-4.58,-0.02,-0.15
14:38:46.771,0.0,0.02,0.0,-4.33,0.02,0.03
14:38:46.779,0.0,-0.0,-0.01,-4.53,0.13,-0.14
14:38:46.786,0.01,0.0,-0.0,-4.37,-0.06,0.07
14:38:46.793,-0.0,0.0,0.0,-4.27,-0.04,0.05
14:38:46.801,0.0,0.01,0.0,-4.5,0.07,0.01
14:38:46.808,0.0,0.01,-0.01,-4.45,0.05,-0.06
14:38:46.815,0.0,0.02,0.0,-4.44,-0.09,-0.01
14:38:46.822,0.0,0.0,-0.0,-4.5,-0.05,0.07
14:38:46.830,0.01,0.0,-0.0,-4.48,0.08,0.07
14:38:46.837,0.0,0.0,0.0,-4.47,-0.13,0.16
14:38:46.844,0.01,0.01,-0.01,-4.43,0.02,-0.01
14:38:46.851,0.0,0.0,0.0,-4.48,-0.03,0.07
14:38:46.859,0.01,0.0,0.01,-4.4,0.05,0.07
14:38:46.866,0.01,0.0,0.0,-4.37,0.11,0.05
14:38:46.873,-0.0,0.01,0.0,-4.53,0.02,-0.01
14:38:46.880,0.0,-0.01,0.0,-4.53,-0.03,-0.02
14:38:46.888,0.0,0.0,0.01,-4.33,0.05,0.01
14:38:46.895,0.01,-0.01,-0.0,-4.49,-0.12,-0.03
14:38:46.902,0.0,0.01,-0.0,-4.46,-0.02,-0.03
14:38:46.910,0.0,0.01,0.01,-4.48,0.08,0.01
14:38:46.917,0.0,-0.01,0.01,-4.47,0.02,0.02
14:38:46.924,0.02,0.0,-0.01,-4.63,-0.02,0.12
14:38:46.931,0.0,0.0,-0.01,-4.53,0.11,-0.03
14:38:46.939,0.0,0.01,0.0,-4.44,0.13,0.01
14:38:46.946,0.0,-0.0,0.01,-4.54,-0.15,-0.02
14:38:46.953,0.0,0.01,-0.0,-4.42,-0.08,0.01
14:38:46.961,0.0,0.02,-0.0,-4.48,0.06,-0.15
14:38:46.968,0.0,0.01,0.01,-4.54,-0.03,0.04
14:38:46.975,0.0,-0.0,-0.0,-4.43,-0.15,0.03
14:38:46.982,-0.0,0.0,0.0,-4.4,-0.06,0.17
14:38:46.990,0.0,0.0,0.0,-4.44,0.05,-0.06
14:38:46.997,0.01,0.0,0.0,-4.44,0.04,-0.06
14:38:47.004,0.0,0.0,-0.0,-4.57,-0.03,-0.05
14:38:47.012,-0.0,0.0,-0.0,-4.6,-0.06,0.1
14:38:47.019,0.0,0.01,0.01,-4.51,0.04,-0.04
14:38:47.026,0.0,0.02,-0.01,-4.49,0.02,0.04
14:38:47.033,0.01,0.0,-0.0,-4.6,0.03,-0.14
14:38:47.041,0.01,0.01,-0.0,-4.56,0.12,-0.06
14:38:47.048,0.0,0.0,-0.0,-4.44,0.0,0.13
14:38:47.055,0.01,0.01,0.0,-4.53,-0.01,0.06
14:38:47.062,0.01,-0.01,-0.0,-4.34,-0.1,0.04
14:38:47.070,0.0,0.02,-0.0,-4.5,0.14,0.07
14:38:47.077,0.0,0.01,-0.0,-4.64,-0.06,0.02
14:38:47.085,0.0,0.0,-0.01,-4.53,0.07,0.03
14:38:47.092,0.01,0.0,-0.01,-4.34,0.09,-0.0
14:38:47.099,0.0,-0.01,0.0,-4.44,0.04,0.07
14:38:47.106,0.0,0.01,0.0,-4.46,0.1,-0.06
14:38:47.114,0.01,0.0,-0.0,-4.49,0.1,0.11
14:38:47.121,0.0,0.01,0.0,-4.4,0.17,0.13
14:38:47.128,0.01,0.01,0.0,-4.46,-0.04,0.09
14:38:47.136,0.0,0.0,0.0,-4.57,0.13,-0.03
14:38:47.143,0.0,0.0,-0.01,-4.4,0.14,-0.19
14:38:47.150,0.0,0.0,0.0,-4.5,-0.05,-0.18
14:38:47.157,0.0,0.01,-0.0,-4.52,0.13,-0.03
14:38:47.165,0.01,-0.01,-0.0,-4.54,0.09,0.1
14:38:47.172,0.01,0.0,-0.0,-4.4,-0.04,0.02
14:38:47.179,-0.0,0.0,0.0,-4.53,0.1,-0.17
14:38:47.187,-0.0,0.01,-0.01,-4.36,0.17,0.01
14:38:47.194,0.0,0.0,-0.01,-4.39,0.0,-0.14
14:38:47.201,0.0,0.0,0.0,-4.31,0.06,-0.07
14:38:47.208,0.01,0.01,0.0,-4.41,-0.02,0.07
14:38:47.216,0.01,0.01,-0.0,-4.62,-0.1,-0.02
14:38:47.223,0.0,0.02,-0.0,-4.5,0.04,-0.09
14:38:47.230,-0.0,0.01,0.01,-4.42,0.02,0.1
14:38:47.238,0.01,0.0,-0.0,-4.55,0.03,0.07
14:38:47.245,0.0,0.01,0.01,-4.56,0.1,0.2
14:38:47.252,-0.0,0.01,-0.0,-4.53,-0.06,-0.03
14:38:47.259,0.01,-0.01,-0.0,-4.44,0.15,-0.11
14:38:47.267,0.01,0.0,0.0,-4.45,0.14,0.13
14:38:47.274,0.0,0.01,-0.0,-4.43,-0.03,0.05
14:38:47.281,0.0,0.0,-0.0,-4.4,0.04,0.13
14:38:47.288,0.0,-0.01,-0.0,-4.53,-0.07,0.15
14:38:47.296,0.01,0.01,0.0,-4.48,-0.09,-0.03
14:38:47.303,0.01,0.01,0.0,-4.55,0.07,-0.03
14:38:47.310,0.0,0.0,-0.0,-4.44,-0.2,0.11
14:38:47.318,0.01,0.0,0.0,-4.54,-0.15,0.08
14:38:47.325,0.0,0.01,-0.0,-4.41,-0.03,0.01
14:38:47.332,-0.0,0.01,0.01,-4.5,-0.07,0.13
14:38:47.339,0.01,0.0,0.0,-4.6,0.0,0.25
14:38:47.347,0.0,0.0,0.01,-4.52,0.04,0.08
14:38:47.354,0.01,0.0,0.01,-4.59,0.16,-0.03
14:38:47.361,0.0,0.0,0.0,-4.53,-0.01,0.03
14:38:47.368,0.01,-0.01,-0.0,-4.44,-0.06,-0.06
14:38:47.376,0.01,0.01,0.0,-4.44,-0.07,0.05
14:38:47.383,-0.0,-0.0,-0.0,-4.38,0.04,-0.03
14:38:47.391,0.0,0.0,-0.02,-4.67,0.02,0.07
14:38:47.398,0.0,0.0,0.0,-4.5,0.09,0.3
14:38:47.405,0.0,0.0,-0.01,-4.39,-0.13,0.1
14:38:47.412,-0.0,0.01,-0.0,-4.48,-0.02,-0.0
14:38:47.420,0.01,0.01,-0.01,-4.47,-0.06,-0.01
14:38:47.427,0.01,0.01,0.01,-4.42,-0.13,0.07
14:38:47.434,0.0,0.0,-0.0,-4.35,-0.11,0.05
14:38:47.441,0.0,0.0,-0.0,-4.53,-0.05,-0.11
14:38:47.449,-0.0,0.01,0.0,-4.34,0.02,-0.01
14:38:47.456,0.0,0.01,-0.0,-4.55,-0.0,-0.09
14:38:47.463,0.01,0.01,-0.01,-4.56,0.15,-0.12
14:38:47.471,0.0,0.01,-0.0,-4.46,0.01,0.03
14:38:47.478,-0.0,0.0,0.0,-4.45,-0.06,0.13
14:38:47.485,-0.0,0.0,0.0,-4.42,0.2,0.01
14:38:47.492,0.01,0.01,-0.0,-4.47,0.16,-0.06
14:38:47.500,0.0,0.0,-0.0,-4.53,0.01,-0.1
14:38:47.507,0.01,0.0,-0.01,-4.39,-0.01,0.08
14:38:47.514,0.0,0.02,-0.0,-4.53,-0.02,-0.06
14:38:47.521,0.0,0.01,0.0,-4.58,-0.13,-0.1
14:38:47.529,0.0,0.01,-0.0,-4.52,0.01,-0.09
14:38:47.536,0.0,0.01,0.0,-4.5,0.02,-0.18
14:38:47.543,0.0,0.0,-0.0,-4.44,0.05,-0.09
14:38:47.551,0.0,0.0,-0.0,-4.5,0.03,0.04
14:38:47.558,0.01,0.01,-0.0,-4.36,-0.03,-0.16
14:38:47.565,0.0,0.0,-0.0,-4.42,0.05,-0.06
14:38:47.572,-0.0,0.0,-0.01,-4.44,0.08,-0.03
14:38:47.580,0.0,0.01,-0.0,-4.5,-0.03,0.05
14:38:47.587,0.01,0.0,-0.0,-4.54,0.16,-0.05
14:38:47.594,0.0,0.01,0.0,-4.52,0.13,0.03
14:38:47.602,0.0,-0.0,-0.0,-4.49,-0.03,-0.03
14:38:47.609,0.01,0.01,-0.01,-4.55,0.04,0.15
14:38:47.616,0.0,-0.01,-0.0,-4.36,-0.1,-0.09
14:38:47.623,0.0,-0.0,-0.0,-4.56,-0.06,-0.04
14:38:47.631,0.01,0.01,-0.0,-4.56,-0.11,0.02
14:38:47.638,0.0,0.01,-0.0,-4.4,0.01,0.17
14:38:47.645,0.0,0.0,-0.0,-4.44,0.02,0.04
14:38:47.652,0.01,0.01,0.0,-4.49,0.0,0.01
14:38:47.660,0.0,0.01,0.01,-4.56,-0.12,-0.09
14:38:47.667,-0.0,-0.0,-0.0,-4.44,-0.16,0.06
14:38:47.674,0.01,0.01,-0.0,-4.51,-0.08,0.11
14:38:47.681,0.0,0.01,-0.0,-4.61,-0.0,0.03
14:38:47.689,0.0,0.0,0.0,-4.51,0.1,0.13
14:38:47.696,0.01,0.01,0.0,-4.4,0.02,0.09
14:38:47.703,0.0,0.01,0.0,-4.49,0.07,0.23
14:38:47.711,0.0,0.0,0.0,-4.48,-0.02,0.01
14:38:47.718,-0.0,-0.0,-0.0,-4.44,0.02,-0.05
14:38:47.725,0.01,0.0,-0.0,-4.5,-1.68,-0.12
14:38:47.732,0.0,0.01,-0.01,-4.48,0.16,-0.01
14:38:47.740,0.01,0.01,-0.0,-4.43,-0.02,0.03
14:38:47.747,0.0,0.01,0.01,-4.52,-0.03,0.02
14:38:47.754,0.01,0.01,-0.01,-4.66,-0.06,0.2
14:38:47.761,0.01,0.0,-0.01,-4.47,0.01,0.2
14:38:47.769,-0.0,0.01,-0.0,-4.5,0.05,0.04
14:38:47.776,0.0,0.0,-0.0,-4.55,-0.06,-0.06
14:38:47.783,0.01,0.01,0.0,-4.63,0.11,-0.09
14:38:47.790,0.01,0.02,-0.0,-4.34,0.07,-0.02
14:38:47.798,0.0,-0.0,-0.0,-4.47,-0.03,-0.12
14:38:47.805,0.0,-0.0,-0.01,-4.34,0.12,-0.12
14:38:47.812,0.01,0.01,-0.0,-4.37,0.04,0.15
14:38:47.820,0.01,0.01,-0.01,-4.38,0.21,-0.03
14:38:47.827,0.0,0.01,-0.01,-4.5,0.01,-0.07
14:38:47.834,0.01,0.01,-0.02,-4.49,-0.08,0.1
14:38:47.841,0.0,-0.0,0.0,-4.43,0.07,0.02
14:38:47.849,0.01,0.01,-0.0,-4.55,-0.0,0.01
14:38:47.856,0.01,-0.01,-0.0,-4.47,-0.05,0.07
14:38:47.863,0.01,-0.0,0.0,-4.53,0.04,-0.09
14:38:47.870,0.0,0.01,0.0,-4.56,0.06,0.11
14:38:47.878,0.0,0.0,0.01,-4.52,-0.1,0.02
14:38:47.885,-0.0,0.01,0.01,-4.6,0.11,0.11
14:38:47.892,0.01,0.02,-0.0,-4.5,-0.09,-0.11
14:38:47.900,-0.0,0.0,0.01,-4.5,0.02,-0.05
14:38:47.907,-0.0,0.0,-0.01,-4.42,0.13,0.04
14:38:47.914,0.01,0.01,-0.02,-4.38,-0.09,0.11
14:38:47.921,0.01,0.0,-0.0,-4.56,-0.06,0.04
14:38:47.929,0.01,0.01,0.0,-4.53,0.0,0.02
14:38:47.936,0.0,0.0,-0.0,-4.42,-0.02,0.06
14:38:47.943,0.01,0.0,0.0,-4.47,-0.06,0.23
14:38:47.951,0.01,0.01,-0.01,-4.45,0.07,-0.0
14:38:47.958,0.01,0.0,-0.0,-4.58,-0.04,0.09
14:38:47.965,0.01,-0.0,-0.0,-4.47,-0.07,-0.1
14:38:47.972,0.0,0.02,-0.0,-4.49,0.0,0.1
14:38:47.980,0.01,0.02,-0.0,-4.52,-0.18,0.02
14:38:47.987,0.0,0.01,-0.01,-4.46,-0.17,0.06
14:38:47.994,0.01,0.02,0.0,-4.25,0.21,-0.21
14:38:48.002,0.01,0.01,-0.0,-4.47,0.0,0.01
14:38:48.009,0.0,0.01,-0.0,-4.36,0.0,-0.05
14:38:48.016,0.01,0.01,0.01,-4.41,0.06,0.01
14:38:48.023,0.0,0.0,0.01,-4.48,-0.02,0.02
14:38:48.031,0.01,0.01,-0.0,-4.56,0.07,-0.06
14:38:48.038,0.0,0.01,-0.0,-4.58,-0.0,0.01
14:38:48.045,-0.01,0.0,0.01,-4.53,0.01,-0.07
14:38:48.052,0.01,-0.0,-0.0,-4.43,0.16,-0.19
14:38:48.060,0.0,0.01,-0.0,-4.49,0.09,0.12
14:38:48.067,0.0,0.0,0.0,-4.44,-0.0,0.02
14:38:48.074,0.01,0.0,0.01,-4.4,0.09,0.11
14:38:48.082,0.0,0.01,0.01,-4.44,-0.06,0.05
14:38:48.089,0.0,0.0,-0.01,-4.5,0.07,0.01
14:38:48.097,0.01,0.01,-0.0,-4.43,0.05,0.17
14:38:48.104,0.01,0.01,0.0,-4.44,-0.03,-0.05
14:38:48.111,0.0,0.01,-0.0,-4.34,0.13,0.14
14:38:48.118,0.0,-0.01,-0.01,-4.54,0.09,-0.14
14:38:48.126,-0.0,0.01,0.0,-4.47,0.17,0.05
14:38:48.133,0.0,-0.01,-0.0,-4.48,-0.26,0.11
14:38:48.140,-0.0,0.0,0.0,-4.45,-0.12,0.03
14:38:48.148,0.01,0.01,-0.0,-4.54,-0.02,0.01
14:38:48.155,0.0,-0.01,-0.0,-4.43,0.12,-0.17
14:38:48.162,0.01,0.01,0.0,-4.37,0.09,-0.03
14:38:48.170,0.0,0.02,-0.01,-4.55,0.07,-0.01
14:38:48.177,0.0,0.0,0.0,-4.47,0.0,-0.02
14:38:48.184,0.0,0.01,0.0,-4.56,0.2,0.18
14:38:48.191,-0.0,0.01,0.01,-4.53,0.04,-0.03
14:38:48.199,0.01,0.0,-0.01,-4.47,0.19,0.02
14:38:48.206,0.01,0.0,-0.01,-4.39,0.05,-0.03
14:38:48.213,0.0,0.01,-0.02,-4.63,-0.01,-0.01
14:38:48.221,0.01,0.0,0.01,-4.53,0.1,-0.02
14:38:48.228,-0.0,-0.0,0.01,-4.53,-0.04,-0.08
14:38:48.235,-0.0,0.01,-0.02,-4.52,-0.12,0.15
14:38:48.242,0.0,0.0,0.0,-4.53,0.03,-0.03
14:38:48.250,0.0,0.02,0.0,-4.55,-0.02,0.09
14:38:48.257,0.0,-0.01,-0.0,-4.39,0.1,-0.14
14:38:48.264,0.0,0.01,0.0,-4.55,-0.05,0.04
14:38:48.272,0.01,0.0,0.0,-4.5,-0.03,0.07
14:38:48.279,0.01,0.0,-0.01,-4.48,0.01,-0.0
14:38:48.286,0.01,0.0,-0.01,-4.4,-0.02,0.04
14:38:48.293,0.01,0.01,0.01,-4.59,0.16,0.17
14:38:48.301,0.0,0.0,0.01,-4.55,0.16,0.01
14:38:48.308,0.0,0.0,-0.0,-4.49,0.09,0.16
14:38:48.315,-0.0,-0.01,0.0,-4.46,0.09,0.01
14:38:48.323,0.0,0.0,-0.0,-4.53,-0.06,0.05
14:38:48.330,-0.0,0.0,0.0,-4.46,-0.13,-0.02
14:38:48.337,0.01,0.01,-0.0,-4.41,0.06,0.03
14:38:48.344,0.0,0.0,-0.0,-4.53,-0.01,-0.02
14:38:48.352,0.0,0.0,-0.0,-4.45,-0.1,-0.08
14:38:48.359,0.0,0.01,0.0,-4.4,-0.12,-0.1
14:38:48.366,0.0,-0.01,-0.0,-4.44,0.18,-0.01
14:38:48.374,-0.0,0.0,-0.01,-4.52,0.04,-0.01
14:38:48.381,0.0,0.02,-0.0,-4.51,-0.03,-0.0
14:38:48.388,0.01,0.01,0.0,-4.56,0.05,-0.06
14:38:48.395,0.01,0.02,0.01,-4.39,0.06,0.01
14:38:48.403,0.0,0.01,-0.02,-4.54,-0.06,-0.01
14:38:48.410,0.01,0.01,0.0,-4.47,0.07,-0.01
14:38:48.417,0.01,0.0,0.0,-4.54,-0.02,-0.09
14:38:48.424,0.0,-0.01,-0.01,-4.58,-0.05,0.1
14:38:48.432,-0.0,0.01,0.0,-4.44,0.09,0.14
14:38:48.439,0.0,-0.01,0.0,-4.47,0.0,-0.0
14:38:48.446,0.0,-0.01,0.01,-4.53,0.11,-0.09
14:38:48.454,0.0,-0.0,-0.0,-4.58,-0.09,-0.05
14:38:48.461,0.0,0.01,-0.0,-4.59,0.16,-0.0
14:38:48.468,0.01,0.01,0.01,-4.43,-0.06,-0.06
14:38:48.475,0.0,0.0,-0.0,-4.52,0.01,0.01
14:38:48.483,0.01,0.0,0.0,-4.47,0.05,-0.09
14:38:48.490,0.01,0.0,-0.01,-4.6,0.13,-0.04
14:38:48.497,0.01,0.0,-0.0,-4.48,-0.0,0.2
14:38:48.505,0.0,0.0,0.0,-4.59,0.01,-0.09
14:38:48.512,0.0,0.01,-0.0,-4.49,-0.01,-0.05
14:38:48.519,0.0,-0.01,0.0,-4.44,0.0,0.03
14:38:48.526,0.01,0.01,0.0,-4.38,-0.0,-0.03
14:38:48.534,0.01,0.01,-0.0,-4.53,0.03,0.01
14:38:48.541,0.01,0.01,-0.0,-4.6,0.12,0.05
14:38:48.548,0.0,0.01,-0.0,-4.44,-0.04,0.11
14:38:48.556,0.0,0.01,-0.0,-4.31,-0.02,0.01
14:38:48.563,0.0,0.0,-0.01,-4.44,0.02,0.07
14:38:48.570,0.01,0.0,-0.0,-4.59,0.04,0.2
14:38:48.578,-0.0,0.02,-0.0,-4.47,0.1,-0.08
14:38:48.585,0.0,0.01,-0.01,-4.63,-0.09,-0.05
14:38:48.592,0.0,-0.0,-0.0,-4.43,0.07,0.13
14:38:48.599,0.01,-0.01,0.01,-4.55,-0.04,-0.04
14:38:48.607,0.01,0.01,0.0,-4.38,-0.1,0.05
14:38:48.614,0.01,0.01,-0.0,-4.48,0.1,0.07
14:38:48.621,0.01,-0.01,-0.01,-4.6,0.05,-0.03
14:38:48.629,0.0,0.0,-0.0,-4.44,0.19,-0.11
14:38:48.636,0.01,0.01,-0.0,-4.29,-0.02,0.04
14:38:48.643,0.0,-0.0,-0.0,-4.63,-0.0,-0.13
14:38:48.651,0.01,0.0,-0.0,-4.6,0.02,-0.05
14:38:48.658,0.0,0.01,-0.0,-4.34,-0.08,0.05
14:38:48.665,0.0,0.01,-0.0,-4.5,-0.01,0.05
14:38:48.672,0.0,-0.0,0.01,-4.44,0.07,-0.03
14:38:48.680,0.0,0.0,-0.0,-4.66,-0.13,-0.02
14:38:48.687,0.0,0.01,0.0,-4.52,0.09,-0.02
14:38:48.694,0.0,0.0,-0.0,-4.46,0.03,0.01
14:38:48.702,-0.0,0.02,0.0,-4.63,0.08,-0.09
14:38:48.709,0.0,-0.0,-0.0,-4.56,0.02,0.02
14:38:48.716,0.0,0.0,-0.0,-4.44,0.07,0.24
14:38:48.723,0.0,0.01,-0.01,-4.43,0.25,-0.03
14:38:48.731,-0.0,0.0,-0.0,-4.47,0.09,-0.01
14:38:48.738,0.0,0.01,-0.0,-4.43,0.03,-0.02
14:38:48.746,0.0,0.01,0.0,-4.58,0.03,-0.03
14:38:48.753,0.0,-0.01,0.01,-4.56,-0.05,-0.03
14:38:48.760,-0.0,0.01,-0.0,-4.56,0.05,0.05
14:38:48.767,0.01,0.01,-0.0,-4.65,-0.1,-0.06
14:38:48.775,0.01,0.02,-0.0,-4.57,0.03,-0.12
14:38:48.782,0.0,0.0,-0.0,-4.44,-0.08,0.09
14:38:48.789,0.0,0.01,0.01,-4.55,0.07,-0.08
14:38:48.797,-0.0,0.0,-0.02,-4.64,0.15,0.21
14:38:48.804,0.01,0.01,-0.01,-4.44,0.03,-0.07
14:38:48.811,0.01,0.01,0.0,-4.39,0.02,0.02
14:38:48.819,0.0,0.0,-0.0,-4.58,-0.1,0.13
14:38:48.826,0.01,0.0,0.0,-4.51,-0.03,-0.08
14:38:48.833,0.0,0.02,-0.02,-4.63,-0.06,-0.01
14:38:48.841,0.0,0.0,0.0,-4.46,0.1,0.04
14:38:48.848,-0.0,0.0,-0.02,-4.48,-0.01,0.04
14:38:48.855,0.0,0.01,-0.0,-4.34,-0.04,0.07
14:38:48.862,-0.0,0.0,0.0,-4.54,0.13,0.04
14:38:48.870,0.0,0.01,0.01,-4.47,0.08,-0.0
14:38:48.877,0.0,0.0,0.0,-4.4,0.1,0.19
14:38:48.884,0.0,0.0,-0.01,-4.59,0.01,0.04
14:38:48.892,0.01,-0.0,0.0,-4.37,-0.03,0.04
14:38:48.899,0.0,0.01,0.0,-4.49,0.16,-0.06
14:38:48.906,0.0,0.01,-0.0,-4.34,-0.11,0.16
14:38:48.913,0.0,0.0,0.0,-4.44,-0.15,-0.07
14:38:48.921,0.01,0.0,-0.0,-4.63,0.0,-0.06
14:38:48.928,-0.0,0.01,0.0,-4.43,-0.03,0.01
14:38:48.935,-0.02,0.0,-0.01,-4.58,-0.0,-0.09
14:38:48.943,0.0,0.0,-0.0,-4.48,0.13,0.03
14:38:48.950,0.01,0.02,0.0,-4.51,0.04,0.03
14:38:48.957,0.01,0.01,0.0,-4.51,0.04,-0.06
14:38:48.964,0.0,-0.0,-0.01,-4.56,-0.04,0.12
14:38:48.972,0.0,0.0,-0.0,-4.38,-0.05,-0.01
14:38:48.979,0.0,0.0,-0.01,-4.43,-0.0,-0.08
14:38:48.986,0.01,-0.0,-0.01,-4.67,-0.06,0.05
14:38:48.994,0.0,0.01,0.01,-4.5,0.11,0.03
14:38:49.001,0.0,0.01,-0.0,-4.45,0.05,-0.19
14:38:49.008,0.01,0.0,-0.01,-4.44,0.0,0.04
14:38:49.015,0.0,0.0,0.01,-4.53,-0.06,-0.02
14:38:49.023,0.01,0.0,-0.01,-4.58,0.13,-0.17
14:38:49.030,-0.0,0.01,-0.0,-4.45,0.07,-0.03
14:38:49.037,0.01,0.0,-0.02,-4.53,0.14,-0.1
14:38:49.045,0.0,0.01,-0.01,-4.48,0.0,0.02
14:38:49.052,0.0,0.0,-0.0,-4.58,0.15,0.01
14:38:49.059,0.01,0.0,-0.0,-4.54,0.12,-0.03
14:38:49.066,0.01,0.01,-0.0,-4.39,-0.13,0.07
14:38:49.074,0.0,0.0,-0.02,-4.51,-0.06,-0.09
14:38:49.081,0.0,-0.0,-0.01,-4.55,0.02,0.01
14:38:49.088,0.0,0.01,0.0,-4.46,0.01,0.05
14:38:49.096,0.0,0.0,0.0,-4.46,-0.0,0.08
14:38:49.103,0.0,0.01,-0.01,-4.43,0.04,-0.03
14:38:49.110,-0.0,0.0,0.01,-4.48,-0.05,0.01
14:38:49.118,0.01,0.01,-0.01,-4.4,-0.14,-0.13
14:38:49.125,0.0,0.01,-0.01,-4.5,-0.04,0.16
14:38:49.132,0.01,0.0,0.0,-4.5,0.03,-0.14
14:38:49.140,0.01,0.0,-0.01,-4.59,-0.08,0.09
14:38:49.147,0.01,0.01,-0.01,-4.35,-0.02,0.1
14:38:49.154,0.01,0.0,0.01,-4.47,-0.05,-0.03
14:38:49.162,0.01,0.0,-0.01,-4.44,0.04,-0.08
14:38:49.169,0.0,0.01,0.0,-4.52,-0.03,-0.03
14:38:49.176,0.0,0.0,0.01,-4.63,0.04,0.05
14:38:49.183,-0.0,0.0,0.0,-4.46,0.11,-0.07
14:38:49.191,0.0,0.02,-0.0,-4.48,0.15,-0.0
14:38:49.198,0.0,0.0,0.0,-4.45,0.12,-0.01
14:38:49.205,0.0,0.0,-0.0,-4.55,0.04,-0.02
14:38:49.213,0.01,0.0,-0.0,-4.42,-0.03,0.04
14:38:49.220,0.01,-0.0,-0.01,-4.44,0.03,0.04
14:38:49.227,0.0,0.01,0.01,-4.45,-0.03,-0.03
14:38:49.234,0.01,0.01,-0.01,-4.5,0.0,0.1
14:38:49.242,0.0,0.01,-0.0,-4.66,-0.2,0.02
14:38:49.249,0.01,0.01,-0.0,-4.65,0.17,0.1
14:38:49.256,0.0,0.0,-0.01,-4.51,-0.07,0.14
14:38:49.264,0.01,0.01,-0.0,-4.54,-0.13,0.06
14:38:49.271,-0.0,-0.0,0.0,-4.56,0.0,-0.03
14:38:49.278,0.01,0.01,-0.0,-4.39,-0.07,0.1
14:38:49.285,0.01,0.0,-0.0,-4.53,0.16,-0.09
14:38:49.293,0.0,-0.01,0.01,-4.4,0.06,-0.01
14:38:49.300,0.0,0.01,-0.0,-4.42,-0.0,0.01
14:38:49.307,0.01,0.01,-0.0,-4.44,0.07,-0.02
14:38:49.315,0.01,-0.0,0.0,-4.42,0.2,-0.1
14:38:49.322,-0.0,0.0,-0.01,-4.41,0.05,0.17
14:38:49.329,0.0,0.02,-0.0,-4.38,0.13,-0.02
14:38:49.336,0.01,0.01,-0.0,-4.4,-0.03,-0.1
14:38:49.344,0.0,0.0,-0.0,-4.52,0.03,0.08
14:38:49.351,0.0,0.01,-0.0,-4.42,0.06,-0.09
14:38:49.358,0.01,0.0,-0.0,-4.44,0.09,0.06
14:38:49.366,-0.0,-0.01,0.0,-4.53,-0.17,0.06
14:38:49.373,0.01,0.0,-0.0,-4.42,-0.11,-0.12
14:38:49.380,0.0,0.0,0.0,-4.66,0.03,-0.05
14:38:49.387,0.01,-0.0,-0.0,-4.47,0.01,0.09
14:38:49.395,0.0,0.0,-0.01,-4.49,0.08,0.07
14:38:49.402,0.01,0.0,-0.0,-4.4,0.02,0.03
14:38:49.409,0.01,-0.01,0.0,-4.47,0.12,0.04
14:38:49.417,0.01,0.01,-0.01,-4.57,0.04,-0.03
14:38:49.424,0.0,0.0,-0.0,-4.39,-0.05,-0.09
14:38:49.431,-0.0,0.01,-0.02,-4.51,0.11,0.02
14:38:49.439,0.0,-0.0,-0.0,-4.49,0.02,-0.09
14:38:49.446,0.01,0.01,-0.0,-4.51,-0.06,-0.02
14:38:49.453,0.0,0.02,0.01,-4.3,-0.01,-0.02
14:38:49.460,0.01,0.0,-0.01,-4.59,0.03,0.07
14:38:49.468,0.0,0.02,-0.01,-4.5,0.04,-0.0
14:38:49.475,0.0,0.02,0.0,-4.5,0.04,0.05
14:38:49.482,0.01,0.01,-0.0,-4.38,-0.1,0.07
14:38:49.490,0.0,0.01,0.0,-4.5,-0.02,-0.08
14:38:49.497,0.0,0.01,0.0,-4.59,0.01,-0.14
14:38:49.504,-0.0,0.0,-0.0,-4.55,-0.02,0.11
14:38:49.511,0.0,0.01,0.0,-4.64,0.14,0.02
14:38:49.519,0.01,0.0,-0.01,-4.49,0.14,0.09
14:38:49.526,0.0,0.0,-0.01,-4.59,-0.06,-0.05
14:38:49.533,-0.0,0.01,-0.0,-4.44,0.2,0.09
14:38:49.541,0.0,0.0,-0.0,-4.51,-0.0,-0.03
14:38:49.548,0.0,0.0,0.0,-4.42,-0.06,0.07
14:38:49.555,0.0,-0.01,-0.01,-4.51,0.0,0.04
14:38:49.562,0.0,0.0,0.0,-4.47,0.11,-0.09
14:38:49.570,0.0,0.01,-0.02,-4.37,0.22,0.06
14:38:49.577,0.01,0.0,0.01,-4.54,-0.16,0.07
14:38:49.584,0.0,0.0,-0.0,-4.44,-0.06,-0.05
14:38:49.592,0.0,0.01,0.01,-4.56,0.1,-0.04
14:38:49.599,0.0,0.01,-0.01,-4.38,0.02,0.13
14:38:49.606,0.0,0.0,-0.0,-4.4,0.04,0.02
14:38:49.613,0.01,0.01,0.0,-4.52,-0.03,0.15
14:38:49.621,0.0,0.0,-0.0,-4.49,-0.03,-0.17
14:38:49.628,0.0,-0.0,0.01,-4.41,-0.12,0.17
14:38:49.635,0.01,0.0,0.0,-4.47,0.0,0.23
14:38:49.643,0.01,0.01,-0.01,-4.5,-0.05,-0.2
14:38:49.650,0.0,-0.01,-0.01,-4.53,-0.09,0.16
14:38:49.657,0.0,0.02,0.0,-4.44,-0.14,0.01
14:38:49.664,0.01,0.0,0.0,-4.47,-0.11,0.06
14:38:49.672,-0.0,0.01,-0.0,-4.56,-0.06,0.15
14:38:49.679,0.01,-0.01,0.0,-4.38,-0.06,-0.05
14:38:49.686,0.0,0.01,0.0,-4.65,-0.12,-0.14
14:38:49.694,0.01,0.0,0.0,-4.4,0.04,-0.02
14:38:49.701,0.01,0.01,-0.0,-4.36,0.04,-0.02
14:38:49.708,0.0,0.01,0.0,-4.47,0.04,-0.16
14:38:49.715,0.0,0.0,-0.0,-4.57,0.07,0.08
14:38:49.723,0.01,0.01,-0.0,-4.44,0.18,-0.18
14:38:49.730,0.01,0.01,-0.01,-4.49,0.11,-0.06
14:38:49.737,0.0,0.02,0.0,-4.45,-0.0,0.08
14:38:49.745,0.01,0.0,-0.0,-4.52,-0.06,-0.12
14:38:49.752,0.0,0.0,-0.01,-4.37,0.04,0.04
14:38:49.759,0.0,0.0,0.01,-4.45,0.01,0.13
14:38:49.766,0.0,0.0,-0.01,-4.46,0.05,-0.09
14:38:49.774,0.0,0.02,-0.0,-4.42,0.08,-0.06
14:38:49.781,0.0,0.0,0.0,-4.48,0.07,-0.01
14:38:49.788,0.0,0.0,-0.01,-4.37,0.04,0.01
14:38:49.796,0.0,-0.01,0.0,-4.36,-0.0,-0.04
14:38:49.803,0.01,-0.0,-0.01,-4.58,0.07,0.16
14:38:49.810,0.0,0.01,-0.0,-4.44,0.1,0.2
14:38:49.817,0.0,0.01,-0.0,-4.46,0.1,0.04
14:38:49.825,0.0,0.0,-0.0,-4.5,-0.03,0.12
14:38:49.832,0.0,0.0,0.01,-4.69,0.06,-0.03
14:38:49.839,-0.0,0.0,-0.0,-4.5,-0.03,0.1
14:38:49.847,0.01,0.0,-0.0,-4.34,0.12,-0.0
14:38:49.854,0.0,-0.01,0.0,-4.47,0.09,-0.03
14:38:49.861,0.0,-0.01,-0.0,-4.4,0.06,0.13
14:38:49.868,0.0,-0.0,-0.0,-4.48,-0.03,0.04
14:38:49.876,0.0,0.01,-0.02,-4.54,0.03,0.05
14:38:49.883,0.01,0.0,0.0,-4.44,-0.08,0.01
14:38:49.890,0.01,0.0,0.01,-4.51,-0.1,0.09
14:38:49.898,0.01,0.01,-0.01,-4.54,-0.0,-0.05
14:38:49.905,0.0,0.01,0.0,-4.44,0.07,-0.01
14:38:49.912,0.01,0.0,0.0,-4.47,-0.03,0.06
14:38:49.919,0.01,-0.01,-0.01,-4.52,0.1,-0.23
14:38:49.927,0.0,0.0,0.01,-4.5,0.02,-0.04
14:38:49.934,0.0,0.0,-0.0,-4.42,-0.05,-0.05
14:38:49.941,0.0,-0.01,-0.0,-4.53,-0.07,0.02
14:38:49.949,-0.0,0.01,0.0,-4.42,-0.06,0.22
14:38:49.956,0.01,0.0,0.0,-4.57,-0.05,0.15
14:38:49.963,0.01,0.0,0.0,-4.44,-0.06,-0.03
14:38:49.970,-0.0,0.01,-0.0,-4.6,-0.0,0.02
14:38:49.978,0.02,-0.01,0.0,-4.45,-0.04,-0.05
14:38:49.985,0.01,0.0,0.0,-4.46,0.02,0.1
14:38:49.992,0.0,-0.0,0.01,-4.46,-0.07,0.1
14:38:50.000,-0.0,0.01,-0.0,-4.52,0.1,0.02
14:38:50.007,0.0,0.0,-0.01,-4.42,-0.02,0.01
14:38:50.014,-0.0,0.0,-0.01,-4.38,0.07,-0.01
14:38:50.021,0.0,0.0,-0.0,-4.39,0.14,0.15
14:38:50.029,0.0,0.01,-0.0,-4.46,-0.06,0.02
14:38:50.036,0.0,0.0,-0.0,-4.44,-0.08,-0.06
14:38:50.043,0.0,0.01,-0.0,-4.53,0.11,0.09
14:38:50.051,0.01,0.01,0.0,-4.4,0.08,-0.05
14:38:50.058,0.0,0.01,-0.0,-4.53,-0.15,0.01
14:38:50.065,0.0,0.01,-0.0,-4.39,0.1,0.1
14:38:50.073,0.01,0.01,-0.0,-4.57,-0.09,-0.02
14:38:50.080,0.0,0.0,-0.0,-4.54,-0.01,-0.06
14:38:50.087,-0.0,0.0,0.01,-4.38,-0.02,-0.0
14:38:50.095,0.0,0.0,-0.01,-4.51,0.0,0.01
14:38:50.102,0.01,0.01,-0.0,-4.4,0.13,-0.07
14:38:50.110,-0.0,0.0,0.01,-4.47,0.09,-0.12
14:38:50.117,0.0,0.0,0.0,-4.53,0.09,-0.06
14:38:50.124,0.0,-0.01,-0.0,-4.47,-0.11,0.09
14:38:50.132,-0.0,0.0,0.0,-4.47,0.08,0.06
14:38:50.139,0.0,0.01,-0.01,-4.45,0.1,-0.04
14:38:50.146,0.01,-0.01,0.01,-4.6,0.22,-0.12
14:38:50.153,0.01,0.0,0.01,-4.4,0.04,0.11
14:38:50.161,0.01,0.01,0.0,-4.34,0.0,0.11
14:38:50.168,0.01,-0.0,0.0,-4.43,-0.06,-0.16
14:38:50.175,0.0,0.0,-0.0,-4.42,-0.02,0.15
14:38:50.183,0.01,-0.01,0.0,-4.49,0.06,-0.09
14:38:50.190,0.0,0.0,0.0,-4.51,0.1,-0.12
14:38:50.197,0.01,-0.0,-0.0,-4.46,0.1,-0.01
14:38:50.204,0.0,-0.01,0.0,-4.38,0.16,-0.07
14:38:50.212,0.0,0.01,-0.0,-4.52,0.07,-0.15
14:38:50.219,0.0,0.0,-0.0,-4.51,-0.01,0.08
14:38:50.226,-0.0,-0.0,0.01,-4.47,-0.08,-0.02
14:38:50.234,0.01,0.01,0.0,-4.49,0.04,0.1
14:38:50.241,0.0,0.01,-0.01,-4.53,-0.14,-0.09
14:38:50.248,0.0,0.0,0.0,-4.38,0.04,-0.09
14:38:50.255,0.0,0.0,-0.0,-4.48,-0.05,0.15
14:38:50.263,0.0,0.0,-0.01,-4.5,0.07,-0.04
14:38:50.270,0.01,0.01,-0.0,-4.36,-0.03,0.07
14:38:50.277,0.0,0.01,0.0,-4.4,-0.02,-0.06
14:38:50.285,-0.0,0.0,-0.0,-4.53,-0.04,-0.05
14:38:50.292,-0.0,0.01,0.0,-4.43,0.02,0.04
14:38:50.299,0.0,0.0,-0.0,-4.37,0.17,0.08
14:38:50.306,-0.0,0.01,0.0,-4.4,-0.06,0.03
14:38:50.314,0.01,0.0,-0.0,-4.56,-0.02,-0.13
14:38:50.321,0.01,0.01,-0.01,-4.5,0.02,0.02
14:38:50.328,-0.0,0.0,-0.0,-4.44,-0.0,0.07
14:38:50.336,0.0,0.01,-0.0,-4.34,0.01,-0.06
14:38:50.343,0.01,0.01,-0.01,-4.52,-0.06,0.01
14:38:50.350,0.0,0.01,-0.02,-4.53,0.14,0.01
14:38:50.357,0.0,0.0,-0.0,-4.49,-0.09,-0.01
14:38:50.365,-0.0,0.0,-0.0,-4.6,0.03,0.01
14:38:50.372,-0.0,0.02,0.0,-4.6,0.04,0.03
14:38:50.379,0.0,0.01,-0.0,-4.53,0.19,0.17
14:38:50.387,0.01,0.01,-0.01,-4.49,0.07,0.17
14:38:50.394,0.0,0.0,-0.0,-4.52,0.03,0.12
14:38:50.401,0.01,0.0,0.01,-4.56,0.1,0.07
14:38:50.408,0.0,0.01,0.01,-4.5,0.13,0.07
14:38:50.416,0.0,0.01,-0.0,-4.45,-0.1,0.05
14:38:50.423,0.0,0.01,-0.01,-4.51,-0.06,0.01
14:38:50.430,0.01,0.0,-0.0,-4.49,0.03,0.1
14:38:50.438,0.0,0.01,-0.0,-4.45,0.1,-0.05
14:38:50.445,-0.0,0.0,0.0,-4.44,0.1,-0.0
14:38:50.452,0.0,0.01,-0.01,-4.47,0.07,0.13
14:38:50.459,0.01,0.0,-0.01,-4.36,-0.0,-0.01
14:38:50.467,-0.0,0.0,-0.01,-4.5,-0.0,0.04
14:38:50.474,0.0,0.02,-0.0,-4.46,0.05,-0.13
14:38:50.481,-0.0,0.0,0.0,-4.53,-0.16,0.18
14:38:50.489,0.01,0.0,-0.0,-4.37,0.09,0.04
14:38:50.496,0.0,0.0,0.0,-4.5,-0.04,0.15
14:38:50.503,0.0,0.0,-0.0,-4.6,-0.09,0.19
14:38:50.510,0.01,0.0,0.0,-4.51,-0.08,0.04
14:38:50.518,0.01,0.01,0.01,-4.4,0.01,-0.06
14:38:50.525,0.01,0.01,-0.0,-4.5,-0.19,0.04
14:38:50.532,0.0,0.01,-0.0,-4.54,-0.09,-0.02
14:38:50.540,0.0,0.01,-0.01,-4.46,-0.03,-0.04
14:38:50.547,0.0,0.0,-0.01,-4.56,0.06,0.01
14:38:50.554,0.0,0.0,0.01,-4.47,0.04,-0.06
14:38:50.561,0.01,0.01,-0.0,-4.57,-0.01,0.03
14:38:50.569,0.01,0.0,-0.0,-4.54,0.0,-0.06
14:38:50.576,0.0,0.01,0.0,-4.58,-0.08,0.13
14:38:50.583,0.01,0.0,0.01,-4.39,-0.11,-0.12
14:38:50.591,0.0,-0.01,-0.0,-4.47,-0.13,0.02
14:38:50.598,0.0,0.01,0.0,-4.44,0.06,0.07
14:38:50.605,0.0,0.0,-0.0,-4.48,0.02,-0.1
14:38:50.612,0.01,0.0,-0.0,-4.35,0.01,0.13
14:38:50.620,0.0,0.0,0.01,-4.37,0.1,0.02
14:38:50.627,0.01,0.0,-0.0,-4.45,0.09,-0.05
14:38:50.634,0.0,-0.0,-0.0,-4.69,0.07,-0.06
14:38:50.642,0.01,0.01,-0.01,-4.5,0.05,0.07
14:38:50.649,0.0,0.0,-0.0,-4.4,0.08,0.11
14:38:50.656,0.0,0.0,0.0,-4.52,0.1,-0.03
14:38:50.663,0.0,0.0,-0.0,-4.6,0.11,-0.06
14:38:50.671,0.0,0.0,-0.02,-4.47,0.02,-0.22
14:38:50.678,0.0,0.02,0.0,-4.5,-0.15,0.1
14:38:50.685,-0.0,0.0,0.0,-4.57,0.13,-0.12
14:38:50.693,0.0,0.02,0.0,-4.57,0.0,-0.0
14:38:50.700,-0.0,-0.0,-0.0,-4.43,-0.06,0.04
14:38:50.707,-0.0,0.01,-0.01,-4.55,-0.08,0.11
14:38:50.714,0.01,-0.01,0.0,-4.46,0.07,0.13
14:38:50.722,-0.0,0.0,-0.01,-4.6,0.1,-0.06
14:38:50.729,0.0,0.0,-0.01,-4.57,0.09,0.01
14:38:50.736,0.0,0.0,0.01,-4.62,0.0,0.01
14:38:50.744,0.0,0.01,-0.0,-4.41,-0.06,0.1
14:38:50.751,0.0,-0.01,0.0,-4.4,-0.09,0.05
14:38:50.758,-0.0,0.01,0.0,-4.41,-0.02,-0.17
14:38:50.766,0.01,-0.0,0.0,-4.5,0.06,-0.11
14:38:50.773,-0.0,-0.01,0.0,-4.35,0.11,0.1
14:38:50.780,0.0,0.01,0.0,-4.56,-0.01,0.07
14:38:50.787,0.0,0.01,0.0,-4.4,0.14,-0.07
14:38:50.795,-0.0,0.01,0.01,-4.6,-0.05,-0.14
14:38:50.802,0.01,0.01,-0.0,-4.37,0.1,0.1
14:38:50.809,0.01,0.01,0.0,-4.43,0.07,-0.03
14:38:50.817,0.0,0.01,-0.0,-4.54,0.04,0.12
14:38:50.824,0.0,0.01,-0.01,-4.39,-0.04,0.02
14:38:50.831,0.0,0.0,-0.0,-4.37,-0.03,-0.02
14:38:50.838,0.01,0.01,-0.0,-4.47,0.04,-0.06
14:38:50.846,0.0,0.0,0.0,-4.47,0.15,-0.06
14:38:50.853,0.0,0.01,0.0,-4.43,0.06,0.13
14:38:50.860,0.01,-0.01,-0.0,-4.36,0.12,-0.02
14:38:50.868,0.0,0.0,-0.01,-4.54,-0.13,0.04
14:38:50.875,0.0,-0.01,-0.0,-4.49,0.1,0.07
14:38:50.882,-0.0,0.0,-0.0,-4.4,0.14,0.05
14:38:50.889,-0.01,0.0,-0.0,-4.47,0.04,0.2
14:38:50.897,0.0,-0.01,-0.0,-4.56,0.0,0.05
14:38:50.904,0.0,0.01,-0.0,-4.5,-0.05,0.11
14:38:50.911,-0.0,0.01,-0.0,-4.42,0.04,0.1
14:38:50.918,0.01,0.0,0.0,-4.53,0.01,0.19
14:38:50.926,0.0,0.0,-0.0,-4.5,-0.06,0.09
14:38:50.933,0.01,0.01,-0.0,-4.44,-0.07,0.09
14:38:50.940,0.01,0.02,-0.01,-4.49,0.09,0.13
14:38:50.948,0.01,0.01,-0.01,-4.53,0.07,-0.01
14:38:50.955,0.0,0.01,-0.01,-4.4,-0.05,0.07
14:38:50.962,0.01,0.01,-0.01,-4.59,-0.03,-0.04
14:38:50.970,0.01,0.01,0.01,-4.46,-0.16,-0.03
14:38:50.977,0.0,0.0,-0.0,-4.43,0.02,0.16
14:38:50.984,0.0,0.0,0.0,-4.47,0.02,0.05
14:38:50.991,0.0,-0.0,-0.0,-4.56,-0.12,-0.12
14:38:50.999,0.01,0.01,-0.01,-4.48,0.04,0.1
14:38:51.006,0.01,0.01,-0.0,-4.57,-0.13,0.13
14:38:51.013,0.0,0.01,-0.01,-4.4,0.11,-0.09
14:38:51.021,0.0,0.0,-0.0,-4.35,0.01,-0.09
14:38:51.028,0.01,0.01,0.0,-4.51,0.12,-0.02
14:38:51.035,0.0,-0.0,0.01,-4.53,0.01,0.06
14:38:51.042,0.0,-0.0,-0.01,-4.49,0.1,0.02
14:38:51.050,-0.0,0.01,-0.0,-4.4,-0.02,-0.09
14:38:51.057,0.0,0.01,-0.0,-4.5,0.08,-0.15
14:38:51.064,0.01,0.01,0.01,-4.45,-0.08,-0.03
14:38:51.072,0.01,0.0,-0.0,-4.46,-0.04,0.02
14:38:51.079,0.01,0.02,-0.0,-4.49,0.13,-0.11
14:38:51.086,0.0,0.01,-0.0,-4.6,0.05,0.13
14:38:51.093,0.0,0.0,0.0,-4.53,0.03,-0.03
14:38:51.101,0.0,0.0,0.0,-4.43,-0.03,-0.04
14:38:51.108,0.0,0.0,-0.0,-4.56,0.01,0.02
14:38:51.116,0.0,0.01,-0.0,-4.58,0.0,0.01
14:38:51.123,0.0,0.0,0.0,-4.43,0.01,-0.06
14:38:51.130,0.0,-0.01,-0.01,-4.44,0.1,-0.01
14:38:51.138,0.0,0.01,0.0,-4.5,0.01,-0.08
14:38:51.145,0.01,0.0,0.0,-4.56,0.01,-0.09
14:38:51.152,-0.0,0.02,0.0,-4.54,-0.04,0.02
14:38:51.159,-0.0,0.0,0.0,-4.41,0.04,0.08
14:38:51.167,0.0,0.01,-0.01,-4.4,0.16,0.13
14:38:51.174,0.01,0.01,-0.0,-4.52,0.17,-0.1
14:38:51.181,-0.0,0.0,-0.0,-4.44,-0.09,-0.02
14:38:51.189,0.0,-0.01,0.01,-4.44,-0.02,-0.11
14:38:51.196,0.01,0.0,-0.01,-4.5,-0.12,0.04
14:38:51.203,-0.0,0.0,-0.0,-4.51,-0.1,0.1
14:38:51.211,-0.0,0.01,-0.02,-4.36,-0.09,-0.0
14:38:51.218,0.01,-0.0,-0.0,-4.44,-0.08,0.02
14:38:51.225,0.0,0.01,0.0,-4.63,0.09,0.07
14:38:51.232,0.01,0.0,-0.0,-4.5,-0.01,0.1
14:38:51.240,-0.0,0.01,-0.0,-4.57,-0.0,-0.01
14:38:51.247,0.0,0.02,0.0,-4.53,0.0,-0.09
14:38:51.254,0.0,-0.01,-0.0,-4.39,-0.01,0.11
14:38:51.262,-0.0,0.01,-0.0,-4.45,-0.04,0.12
14:38:51.269,0.0,0.01,-0.0,-4.53,-0.09,0.09
14:38:51.276,0.0,0.01,-0.01,-4.59,-0.17,0.06
14:38:51.283,0.0,0.01,0.01,-4.53,-0.03,0.07
14:38:51.291,0.01,0.0,0.0,-4.51,-0.11,-0.08
14:38:51.298,-0.0,0.0,0.0,-4.6,-0.09,0.14
14:38:51.305,0.0,0.0,-0.01,-4.62,-0.0,0.11
14:38:51.313,0.0,-0.0,0.01,-4.54,0.03,0.04
14:38:51.320,0.01,0.01,-0.0,-4.53,0.0,0.12
14:38:51.327,0.0,0.02,-0.0,-4.47,0.13,0.12
14:38:51.334,0.0,0.02,-0.0,-4.31,-0.17,-0.03
14:38:51.342,0.0,0.0,-0.0,-4.56,0.06,0.06
14:38:51.349,0.0,0.01,0.0,-4.51,0.08,0.11
14:38:51.356,-0.01,0.0,-0.0,-4.52,-0.05,0.03
14:38:51.364,0.01,0.0,0.0,-4.41,0.02,0.01
14:38:51.371,0.0,0.01,0.01,-4.37,0.07,-0.06
14:38:51.378,0.01,0.0,0.0,-4.51,0.1,0.1
14:38:51.386,0.01,0.0,-0.0,-4.59,-0.14,0.01
14:38:51.393,0.01,0.01,-0.01,-4.42,-0.2,0.06
14:38:51.400,0.01,0.01,0.0,-4.55,0.1,-0.18
14:38:51.407,0.0,0.0,-0.0,-4.41,0.03,-0.12
14:38:51.415,-0.0,0.01,-0.0,-4.38,0.07,-0.06
14:38:51.422,0.0,0.01,-0.0,-4.55,0.1,-0.04
14:38:51.430,0.01,0.0,-0.0,-4.42,0.07,-0.0
14:38:51.437,0.0,0.01,-0.0,-4.47,0.12,0.02
14:38:51.444,0.0,0.02,-0.0,-4.54,0.06,-0.02
14:38:51.451,0.0,0.0,0.01,-4.54,0.07,-0.15
14:38:51.459,0.0,0.0,0.0,-4.41,0.05,-0.04
14:38:51.466,0.0,0.0,0.01,-4.6,-0.0,0.1
14:38:51.473,0.01,0.0,-0.0,-4.65,-0.06,-0.01
14:38:51.481,0.01,0.0,-0.0,-4.46,0.04,0.04
14:38:51.488,0.0,-0.01,0.0,-4.54,-0.09,-0.01
14:38:51.495,0.01,0.01,-0.0,-4.58,-0.17,0.02
14:38:51.502,-0.0,0.02,-0.0,-4.48,-0.05,0.07
14:38:51.510,0.0,0.01,-0.0,-4.51,0.13,-0.08
14:38:51.517,-0.0,0.0,-0.0,-4.47,-0.08,0.03
14:38:51.524,0.0,0.01,-0.0,-4.51,0.03,0.04
14:38:51.532,0.0,0.01,0.0,-4.5,0.13,0.04
14:38:51.539,0.0,-0.0,-0.0,-4.34,0.0,0.04
14:38:51.546,-0.0,0.01,-0.02,-4.57,0.07,0.1
14:38:51.554,-0.0,0.01,-0.01,-4.43,-0.06,-0.02
14:38:51.561,-0.0,0.01,-0.01,-4.34,0.16,-0.03
14:38:51.568,0.0,0.01,-0.0,-4.55,0.0,-0.09
14:38:51.575,0.01,0.0,-0.01,-4.27,0.04,-0.12
14:38:51.583,0.0,0.02,0.01,-4.47,0.21,0.1
14:38:51.590,0.0,0.02,-0.0,-4.57,0.16,0.12
14:38:51.597,-0.0,0.01,-0.0,-4.5,0.13,-0.12
14:38:51.605,-0.0,-0.01,-0.0,-4.51,0.06,0.09
14:38:51.612,0.01,0.01,-0.0,-4.47,-0.02,-0.06
14:38:51.619,0.0,0.0,-0.01,-4.47,0.11,-0.03
14:38:51.626,0.0,0.01,0.0,-4.56,0.05,0.05
14:38:51.634,-0.0,0.0,-0.0,-4.5,-0.13,0.04
14:38:51.641,0.0,-0.0,-0.0,-4.44,-0.12,0.05
14:38:51.648,-0.02,0.01,0.01,-4.48,0.03,0.16
14:38:51.656,0.0,0.0,0.0,-4.43,0.1,-0.03
14:38:51.663,0.0,0.0,-0.0,-4.53,0.02,-0.16
14:38:51.670,0.01,0.0,-0.0,-4.49,0.11,0.17
14:38:51.677,-0.0,0.0,-0.01,-4.51,-0.14,0.15
14:38:51.685,0.0,0.01,-0.01,-4.34,-0.08,0.15
14:38:51.692,0.0,0.0,-0.0,-4.47,0.02,0.04
14:38:51.699,0.0,0.0,0.0,-4.56,-0.03,-0.03
14:38:51.706,0.01,0.01,-0.02,-4.56,0.07,-0.11
14:38:51.714,0.01,-0.01,-0.01,-4.37,-0.1,0.07
14:38:51.721,0.01,0.0,-0.0,-4.4,-0.06,0.1
14:38:51.728,0.0,-0.0,-0.0,-4.56,-0.0,-0.03
14:38:51.736,0.0,0.0,-0.0,-4.24,-0.05,0.11
14:38:51.743,0.01,0.0,-0.01,-4.59,-0.11,0.06
14:38:51.750,0.0,0.0,0.0,-4.37,0.03,0.13
14:38:51.757,0.0,0.02,-0.0,-4.38,0.11,0.11
14:38:51.765,0.01,0.01,-0.0,-4.37,-0.08,0.07
14:38:51.772,0.01,0.01,-0.0,-4.47,-0.07,-0.02
14:38:51.779,0.0,0.01,-0.01,-4.47,0.06,-0.04
14:38:51.786,0.01,0.0,-0.0,-4.53,-0.04,-0.12
14:38:51.794,0.0,0.0,0.01,-4.34,-0.01,0.02
14:38:51.801,0.0,-0.0,-0.0,-4.47,-0.03,-0.09
14:38:51.808,0.0,0.01,-0.0,-4.49,0.02,0.08
14:38:51.816,-0.0,0.0,-0.0,-4.49,0.04,-0.04
14:38:51.823,0.01,0.01,0.0,-4.54,-0.03,0.17
14:38:51.830,-0.0,0.0,0.0,-4.45,0.16,-0.08
14:38:51.837,0.01,0.01,-0.02,-4.36,-0.02,-0.07
14:38:51.845,0.0,0.01,-0.0,-4.44,-0.05,0.11
14:38:51.852,0.0,-0.0,-0.01,-4.35,-0.01,0.01
14:38:51.859,0.0,0.01,-0.01,-4.43,0.03,-0.06
14:38:51.866,0.01,0.01,-0.0,-4.43,0.08,-0.09
14:38:51.874,0.0,0.01,-0.0,-4.39,-0.03,-0.06
14:38:51.881,0.0,0.0,-0.02,-4.51,0.02,-0.08
14:38:51.888,0.01,0.01,-0.0,-4.37,-0.1,-0.06
14:38:51.895,0.0,0.0,0.0,-4.61,0.01,0.13
14:38:51.903,0.01,-0.01,-0.01,-4.43,0.1,-0.08
14:38:51.910,0.0,0.0,-0.0,-4.4,-0.0,-0.02
14:38:51.917,0.0,0.01,-0.0,-4.52,0.07,-0.0
14:38:51.925,0.01,-0.01,-0.0,-4.36,0.17,0.1
14:38:51.932,0.0,0.01,-0.01,-4.63,0.02,0.1
14:38:51.939,0.01,-0.01,0.0,-4.43,0.13,0.04
14:38:51.946,0.0,0.01,-0.01,-4.54,-0.03,0.01
14:38:51.954,0.0,0.01,-0.01,-4.63,-0.08,-0.06
14:38:51.961,0.01,0.01,-0.0,-4.5,0.02,0.06
14:38:51.968,0.0,0.01,0.0,-4.49,0.08,0.03
14:38:51.975,-0.0,0.0,0.01,-4.43,-0.01,-0.18
14:38:51.983,0.0,0.0,-0.01,-4.42,-0.03,0.01
14:38:51.990,0.0,0.01,-0.0,-4.4,-0.09,0.1
14:38:51.997,0.01,0.0,0.0,-4.53,0.02,0.13
14:38:52.005,-0.0,0.01,-0.01,-4.5,0.02,-0.02
14:38:52.012,0.0,0.01,-0.0,-4.46,0.1,0.19
14:38:52.019,0.0,0.01,-0.0,-4.47,0.05,0.09
14:38:52.026,-0.0,0.01,0.0,-4.53,0.05,0.02
14:38:52.034,0.01,0.01,-0.0,-4.47,0.2,0.23
14:38:52.041,-0.0,-0.0,0.0,-4.38,0.03,0.13
14:38:52.048,0.01,0.01,-0.0,-4.59,-0.03,0.14
14:38:52.055,-0.0,0.0,0.01,-4.47,-0.1,0.01
14:38:52.063,0.0,0.01,0.0,-4.48,-0.01,0.11
14:38:52.070,0.0,0.02,-0.0,-4.5,0.0,0.03
14:38:52.077,0.0,0.0,0.01,-4.69,0.02,0.18
14:38:52.084,0.01,0.0,0.01,-4.48,0.12,0.03
14:38:52.092,0.0,-0.01,0.0,-4.5,-0.14,0.03
14:38:52.099,0.0,0.0,-0.0,-4.56,-0.13,0.01
14:38:52.107,0.0,0.01,-0.01,-4.37,-0.0,-0.03
14:38:52.114,0.01,0.01,-0.0,-4.54,-0.05,0.01
14:38:52.121,0.01,-0.0,-0.0,-4.44,0.1,0.05
14:38:52.129,-0.0,0.02,-0.0,-4.56,0.13,-0.1
14:38:52.136,0.0,0.0,0.01,-4.39,0.1,0.1
14:38:52.143,0.0,-0.01,-0.0,-4.35,-0.01,0.06
14:38:52.150,0.0,0.01,0.0,-4.49,-0.08,-0.03
14:38:52.158,0.01,0.0,-0.01,-4.47,0.13,-0.12
14:38:52.165,0.01,0.01,0.0,-4.37,0.11,0.06
14:38:52.172,0.0,0.0,-0.01,-4.63,-0.15,-0.03
14:38:52.180,0.01,0.0,-0.01,-4.54,0.06,-0.03
14:38:52.187,0.0,0.02,-0.02,-4.53,0.07,-0.07
14:38:52.194,0.01,0.0,-0.0,-4.34,-0.08,-0.01
14:38:52.201,0.0,0.0,-0.0,-4.43,-0.0,0.1
14:38:52.209,0.0,0.0,0.0,-4.61,0.06,0.05
14:38:52.216,-0.0,0.01,-0.0,-4.38,0.1,-0.0
14:38:52.223,-0.0,0.0,-0.01,-4.37,-0.03,-0.02
14:38:52.230,0.01,-0.01,0.01,-4.42,-0.03,0.05
14:38:52.238,0.0,0.0,0.0,-4.5,0.04,-0.0
14:38:52.245,0.0,-0.0,0.0,-4.4,0.04,-0.0
14:38:52.252,0.01,0.01,0.0,-4.47,0.04,-0.06
14:38:52.260,0.0,0.01,0.0,-4.47,0.04,0.01
14:38:52.267,0.01,0.02,-0.0,-4.53,0.07,0.05
14:38:52.274,0.0,0.01,-0.0,-4.53,-0.1,-0.04
14:38:52.281,0.0,0.0,-0.01,-4.54,0.2,0.04
14:38:52.289,-0.0,-0.01,-0.0,-4.52,0.0,-0.06
14:38:52.296,0.0,0.01,0.01,-4.53,-0.08,0.07
14:38:52.303,0.0,0.01,0.0,-4.29,0.08,-0.02
14:38:52.310,0.0,0.01,0.0,-4.41,-0.02,0.04
14:38:52.318,0.0,-0.01,0.02,-4.43,0.0,0.01
14:38:52.325,0.01,-0.0,-0.0,-4.39,0.0,-0.05
14:38:52.332,0.0,0.0,-0.02,-4.63,0.03,-0.09
14:38:52.339,0.01,-0.0,0.0,-4.56,-0.05,0.17
14:38:52.347,0.0,0.0,0.0,-4.65,0.04,0.03
14:38:52.354,0.0,0.0,0.01,-4.51,0.07,0.07
14:38:52.361,0.01,0.01,0.0,-4.35,-0.07,0.05
14:38:52.368,0.01,0.01,-0.0,-4.4,0.13,0.15
14:38:52.376,0.01,-0.0,-0.0,-4.46,0.1,0.04
14:38:52.383,0.01,0.01,0.02,-4.44,0.01,-0.04
14:38:52.390,0.0,0.0,-0.0,-4.32,0.07,0.07
14:38:52.397,0.01,0.0,-0.01,-4.38,-0.06,0.08
14:38:52.405,0.0,0.0,-0.0,-4.56,-0.08,0.05
14:38:52.412,0.0,0.01,-0.0,-4.36,0.04,0.04
14:38:52.419,0.0,0.0,-0.0,-4.48,-0.19,-0.02
14:38:52.427,0.01,0.01,0.0,-4.4,0.1,-0.1
14:38:52.434,0.01,0.0,-0.0,-4.47,0.07,-0.04
14:38:52.441,-0.0,0.0,-0.0,-4.4,-0.06,-0.06
14:38:52.448,-0.0,0.0,0.0,-4.4,0.01,0.24
14:38:52.456,0.0,0.0,0.0,-4.4,0.14,-0.02
14:38:52.463,0.0,0.0,-0.0,-4.5,-0.02,0.13
14:38:52.470,0.0,0.01,0.0,-4.44,0.0,0.04
14:38:52.477,0.01,0.0,0.0,-4.52,0.01,0.01
14:38:52.485,0.0,0.01,-0.0,-4.46,-0.03,0.01
14:38:52.492,0.01,-0.0,0.0,-4.42,0.06,0.09
14:38:52.499,0.0,-0.0,-0.0,-4.57,0.1,-0.21
14:38:52.506,0.01,0.0,0.0,-4.57,0.0,-0.1
14:38:52.514,0.01,0.0,-0.0,-4.44,-0.09,-0.02
14:38:52.521,-0.0,0.01,0.0,-4.49,0.12,-0.05
14:38:52.528,0.0,0.0,0.01,-4.51,-0.08,-0.06
14:38:52.536,0.0,0.0,-0.0,-4.53,-0.02,-0.19
14:38:52.543,0.0,0.01,-0.01,-4.49,-0.03,-0.09
14:38:52.550,-0.0,0.01,-0.01,-4.52,0.09,-0.12
14:38:52.557,0.0,0.01,-0.0,-4.33,-0.03,-0.05
14:38:52.565,0.0,0.0,0.0,-4.55,-0.09,-0.0
14:38:52.572,0.01,0.02,0.01,-4.49,-0.11,0.01
14:38:52.579,0.0,0.0,-0.0,-4.53,-0.09,-0.12
14:38:52.586,0.0,0.0,-0.0,-4.46,0.09,-0.14
14:38:52.594,0.01,-0.01,-0.02,-4.5,-0.05,0.01
14:38:52.601,0.01,0.0,-0.0,-4.47,0.03,0.06
14:38:52.608,0.0,0.01,0.0,-4.45,0.06,0.11
14:38:52.616,0.0,0.01,0.0,-4.56,0.0,0.17
14:38:52.623,0.0,0.0,0.0,-4.6,-0.04,0.17
14:38:52.630,0.0,0.0,-0.0,-4.59,-0.09,0.07
14:38:52.637,0.01,-0.01,0.0,-4.47,0.1,0.03
14:38:52.645,0.0,0.0,-0.0,-4.47,-0.04,0.04
14:38:52.652,0.0,0.0,-0.0,-4.53,-0.02,-0.16
14:38:52.659,0.0,0.02,0.0,-4.42,-0.04,-0.07
14:38:52.667,0.01,0.0,-0.0,-4.6,0.04,0.01
14:38:52.674,-0.0,0.0,-0.0,-4.63,-0.0,-0.06
14:38:52.681,0.01,-0.01,0.01,-4.44,0.08,-0.07
14:38:52.688,0.0,0.0,0.01,-4.42,0.06,0.06
14:38:52.696,-0.0,-0.01,-0.0,-4.37,0.11,0.03
14:38:52.703,0.01,0.01,0.0,-4.63,0.06,0.1
14:38:52.710,0.0,0.01,-0.01,-4.49,-0.21,-0.02
14:38:52.717,-0.0,0.0,0.0,-4.54,-0.08,-0.17
14:38:52.725,0.0,0.0,-0.0,-4.39,-0.06,-0.01
14:38:52.732,-0.0,-0.0,0.0,-4.6,0.23,-0.08
14:38:52.739,0.0,-0.01,0.0,-4.6,0.01,-0.02
14:38:52.747,0.0,0.01,-0.0,-4.43,-0.01,0.02
14:38:52.754,0.0,0.0,-0.01,-4.53,0.1,0.03
14:38:52.761,0.0,0.0,-0.0,-4.44,-0.0,0.02
14:38:52.769,-0.0,0.0,-0.0,-4.5,0.01,0.01
14:38:52.776,-0.0,-0.0,-0.0,-4.53,-0.09,0.03
14:38:52.783,0.01,0.01,0.01,-4.44,0.02,0.06
14:38:52.791,0.0,-0.01,-0.0,-4.5,0.04,0.1
14:38:52.798,-0.0,0.0,-0.02,-4.6,0.04,-0.04
14:38:52.805,0.0,0.01,-0.0,-4.54,-0.12,0.03
14:38:52.812,0.0,0.01,-0.01,-4.54,-0.01,0.26
14:38:52.820,0.01,0.01,0.0,-4.61,0.19,0.2
14:38:52.827,0.0,0.01,0.01,-4.47,0.01,0.06
14:38:52.834,0.0,0.01,-0.0,-4.63,0.02,0.05
14:38:52.841,0.0,0.01,-0.0,-4.32,0.05,0.14
14:38:52.849,0.0,0.0,0.0,-4.38,-0.15,0.1
14:38:52.856,0.0,0.01,0.01,-4.44,0.1,0.14
14:38:52.863,0.0,0.01,0.0,-4.47,-0.01,0.08
14:38:52.871,0.01,0.01,0.0,-4.59,0.07,0.04
14:38:52.878,0.0,-0.01,-0.0,-4.55,-0.09,0.03
14:38:52.885,0.0,0.0,0.0,-4.52,0.07,0.01
14:38:52.892,0.0,0.0,0.0,-4.52,0.04,-0.03
14:38:52.900,0.0,0.0,-0.02,-4.44,-0.08,-0.09
14:38:52.907,0.01,-0.0,0.0,-4.45,0.04,-0.01
14:38:52.914,0.0,0.0,-0.0,-4.51,-0.06,0.07
14:38:52.921,0.0,-0.01,0.0,-4.45,-0.04,-0.04
14:38:52.929,0.0,0.0,0.0,-4.35,-0.01,-0.08
14:38:52.936,-0.0,0.01,-0.0,-4.47,0.22,-0.12
14:38:52.943,0.0,-0.01,-0.0,-4.64,0.04,0.09
14:38:52.951,0.0,0.0,0.0,-4.48,-0.06,-0.01
14:38:52.958,0.01,0.0,0.0,-4.31,0.02,0.04
14:38:52.965,0.0,0.0,0.01,-4.48,0.05,0.07
14:38:52.972,0.01,-0.0,0.01,-4.47,-0.03,-0.13
14:38:52.980,0.01,0.01,0.0,-4.45,-0.16,0.04
14:38:52.987,0.0,0.0,0.0,-4.34,-0.09,0.01
14:38:52.994,0.0,0.0,0.0,-4.51,-0.06,0.01
14:38:53.001,0.0,0.01,-0.01,-4.49,-0.0,0.01
14:38:53.009,0.0,-0.01,-0.0,-4.48,-0.06,0.1
14:38:53.016,0.0,0.01,0.0,-4.56,-0.12,0.08
14:38:53.023,-0.0,0.02,-0.0,-4.47,-0.06,0.08
14:38:53.031,0.0,0.0,-0.0,-4.36,-0.01,0.02
14:38:53.038,0.0,0.0,-0.0,-4.42,-0.05,0.06
14:38:53.045,0.01,0.0,-0.0,-4.53,-0.08,0.03
14:38:53.052,0.0,0.0,-0.01,-4.34,-0.19,0.1
14:38:53.060,0.01,0.0,-0.0,-4.53,0.05,0.04
14:38:53.067,0.01,-0.0,0.0,-4.53,0.0,0.1
14:38:53.074,0.0,0.0,0.01,-4.43,-0.02,0.02
14:38:53.082,0.0,0.01,-0.0,-4.44,-0.03,-0.06
14:38:53.089,0.0,-0.01,-0.0,-4.44,-0.11,-0.05
14:38:53.096,-0.0,0.01,-0.0,-4.53,-0.15,-0.04
14:38:53.103,0.0,0.02,0.01,-4.46,0.0,-0.1
14:38:53.111,0.01,0.01,0.0,-4.46,-0.06,0.05
14:38:53.118,0.01,0.01,-0.0,-4.58,0.14,0.07
14:38:53.126,-0.01,0.0,-0.0,-4.44,-0.03,0.12
14:38:53.133,0.01,0.01,0.0,-4.44,0.04,0.16
14:38:53.140,-0.0,0.01,0.01,-4.44,-0.05,-0.05
14:38:53.148,0.0,0.01,-0.01,-4.62,-0.01,-0.15
14:38:53.155,0.0,0.02,0.0,-4.44,-0.06,0.09
14:38:53.162,-0.0,0.01,-0.0,-4.53,-0.0,-0.03
14:38:53.170,-0.0,0.01,-0.0,-4.47,0.04,-0.0
14:38:53.177,0.0,0.01,0.01,-4.5,-0.08,-0.04
14:38:53.184,0.0,0.02,0.0,-4.44,0.13,0.03
14:38:53.191,0.0,0.01,0.0,-4.37,-0.1,-0.05
14:38:53.199,0.0,0.01,0.0,-4.49,0.05,0.1
14:38:53.206,0.01,-0.0,-0.01,-4.36,0.04,-0.04
14:38:53.213,0.0,0.01,-0.0,-4.44,0.14,0.06
14:38:53.221,0.01,-0.0,-0.0,-4.42,-0.11,0.14
14:38:53.228,0.01,0.01,-0.0,-4.5,0.01,-0.13
14:38:53.235,0.0,0.02,-0.0,-4.43,0.0,0.04
14:38:53.242,-0.0,0.02,-0.0,-4.43,0.09,0.15
14:38:53.250,-0.0,0.0,-0.0,-4.46,0.1,-0.2
14:38:53.257,0.0,0.0,-0.02,-4.63,-0.02,0.04
14:38:53.264,0.0,0.0,-0.01,-4.46,0.07,0.04
14:38:53.272,0.0,0.0,-0.0,-4.49,0.12,0.06
14:38:53.279,-0.0,0.0,-0.0,-4.32,0.16,0.02
14:38:53.286,0.01,0.01,0.0,-4.33,0.04,0.02
14:38:53.293,0.0,-0.0,0.0,-4.56,-0.06,-0.05
14:38:53.301,0.0,-0.0,0.0,-4.52,-0.08,-0.01
14:38:53.308,-0.0,0.0,-0.0,-4.6,-0.07,-0.14
14:38:53.315,0.01,0.0,-0.0,-4.4,0.23,-0.12
14:38:53.322,0.01,0.01,-0.0,-4.48,-0.0,-0.0
14:38:53.330,0.0,0.01,-0.02,-4.5,-0.02,-0.12
14:38:53.337,0.0,0.0,-0.0,-4.47,-0.09,0.04
14:38:53.344,0.01,0.01,0.0,-4.4,-0.22,-0.03
14:38:53.351,0.01,0.0,-0.01,-4.46,-0.11,-0.01
14:38:53.359,0.0,0.0,-0.0,-4.5,0.05,0.07
14:38:53.366,0.0,0.0,0.0,-4.51,0.04,-0.06
14:38:53.373,-0.0,0.0,-0.0,-4.54,0.08,0.05
14:38:53.381,0.0,0.0,-0.0,-4.52,0.0,-0.0
14:38:53.388,0.01,-0.01,-0.0,-4.47,-0.26,-0.02
14:38:53.395,0.01,0.0,-0.0,-4.41,-0.03,0.02
14:38:53.402,0.0,-0.0,0.01,-4.49,0.0,-0.09
14:38:53.410,0.0,0.0,0.0,-4.55,0.0,-0.07
14:38:53.417,-0.0,0.01,-0.0,-4.43,0.06,0.05
14:38:53.424,0.0,0.01,-0.0,-4.46,0.0,-0.02
14:38:53.432,0.0,-0.01,0.0,-4.51,0.02,-0.02
14:38:53.439,-0.0,0.01,-0.0,-4.39,0.0,-0.01
14:38:53.446,-0.0,0.01,-0.01,-4.56,0.16,0.05
14:38:53.453,0.0,0.0,-0.0,-4.47,0.1,0.04
14:38:53.461,0.01,0.01,-0.0,-4.5,-0.05,-0.03
14:38:53.468,-0.0,0.02,0.0,-4.51,0.0,0.01
14:38:53.475,0.01,-0.01,0.02,-4.51,0.07,-0.09
14:38:53.482,0.01,0.01,-0.0,-4.44,-0.12,0.04
14:38:53.490,0.0,0.0,0.0,-4.52,-0.06,0.08
14:38:53.497,-0.0,0.0,-0.02,-4.47,0.04,0.11
14:38:53.504,0.01,0.0,0.0,-4.58,-0.01,-0.09
14:38:53.512,0.0,0.01,0.0,-4.31,0.05,-0.04
14:38:53.519,0.0,0.01,0.0,-4.52,0.02,-0.03
14:38:53.526,-0.0,0.01,0.0,-4.49,0.13,-0.0
14:38:53.533,0.0,0.01,0.01,-4.25,-0.16,-0.02
14:38:53.541,0.01,0.0,-0.0,-4.43,-0.09,0.14
14:38:53.548,0.01,0.0,-0.01,-4.34,-0.01,0.01
14:38:53.555,0.01,-0.0,-0.0,-4.75,-0.07,0.07
14:38:53.562,-0.0,0.01,-0.01,-4.31,-0.0,-0.03
14:38:53.570,0.01,0.01,-0.0,-4.37,0.04,-0.01
14:38:53.577,0.01,-0.01,0.01,-4.58,-0.05,-0.02
14:38:53.584,-0.0,0.01,-0.0,-4.53,0.16,-0.04
14:38:53.592,0.0,0.01,-0.0,-4.4,-0.06,0.01
14:38:53.599,0.0,0.01,0.0,-4.54,-0.06,0.03
14:38:53.606,0.01,0.01,0.0,-4.56,-0.16,0.03
14:38:53.613,0.01,0.02,-0.01,-4.47,-0.07,0.04
14:38:53.621,0.01,-0.01,0.0,-4.47,0.1,0.09
14:38:53.628,0.01,0.0,-0.0,-4.49,0.03,-0.06
14:38:53.635,0.0,0.01,0.0,-4.44,0.04,0.04
14:38:53.643,-0.0,0.0,0.01,-4.47,-0.02,-0.01
14:38:53.650,0.0,0.0,-0.01,-4.56,-0.09,0.11
14:38:53.657,0.0,-0.01,0.0,-4.38,-0.03,-0.03
14:38:53.664,0.0,-0.0,0.01,-4.43,0.06,-0.07
14:38:53.672,0.0,-0.0,-0.0,-4.6,0.07,-0.01
14:38:53.679,0.01,0.0,-0.0,-4.36,-0.06,0.04
14:38:53.686,0.01,0.01,0.0,-4.4,-0.03,0.03
14:38:53.694,0.0,0.01,-0.0,-4.4,0.14,0.03
14:38:53.701,0.0,0.01,-0.0,-4.34,-0.05,0.07
14:38:53.708,0.0,0.0,0.0,-4.59,-0.02,-0.06
14:38:53.715,0.0,0.01,-0.0,-4.52,0.08,-0.11
14:38:53.723,-0.0,0.01,0.01,-4.42,-0.18,-0.01
14:38:53.730,0.01,0.0,-0.01,-4.46,0.16,0.05
14:38:53.737,0.0,0.02,-0.0,-4.4,-0.0,0.03
14:38:53.744,0.0,0.01,-0.0,-4.6,0.2,-0.1
14:38:53.752,0.0,0.01,0.0,-4.45,0.04,-0.03
14:38:53.759,0.0,0.0,0.0,-4.44,-0.16,0.11
14:38:53.766,0.01,0.01,0.0,-4.34,0.04,-0.04
14:38:53.774,0.01,0.0,-0.0,-4.4,0.04,-0.0
14:38:53.781,-0.0,0.0,0.0,-4.4,-0.06,-0.02
14:38:53.788,0.0,0.01,-0.0,-4.51,-0.05,0.02
14:38:53.795,0.0,0.01,-0.0,-4.5,0.06,-0.03
14:38:53.803,0.0,0.0,-0.0,-4.5,0.09,-0.16
14:38:53.810,0.01,0.01,-0.01,-4.5,0.2,-0.06
14:38:53.817,0.0,-0.0,-0.01,-4.53,0.07,-0.02
14:38:53.825,-0.0,0.0,0.0,-4.54,-0.09,0.09
14:38:53.832,0.0,0.01,0.01,-4.44,-1.67,0.11
14:38:53.839,0.01,0.01,0.0,-4.56,0.16,0.07
14:38:53.846,0.0,0.0,0.0,-4.53,0.13,-0.02
14:38:53.854,0.0,0.0,-0.0,-4.44,0.1,0.06
14:38:53.861,0.01,0.01,-0.0,-4.42,0.03,-0.12
14:38:53.868,-0.0,0.0,0.0,-4.51,-0.13,0.05
14:38:53.876,0.0,0.0,0.01,-4.41,-0.03,0.1
14:38:53.883,0.0,0.01,0.0,-4.45,-0.05,0.03
14:38:53.890,0.0,-0.01,-0.0,-4.5,0.15,-0.0
14:38:53.897,0.01,0.01,-0.0,-4.43,0.02,0.06
14:38:53.905,0.0,0.0,-0.0,-4.46,0.02,0.02
14:38:53.912,0.02,-0.01,-0.0,-4.48,0.04,-0.07
14:38:53.919,-0.0,0.01,0.0,-4.51,0.01,0.14
14:38:53.926,-0.0,0.01,-0.0,-4.5,0.02,-0.05
14:38:53.934,0.0,0.01,-0.0,-4.49,0.03,0.12
14:38:53.941,0.0,-0.0,-0.0,-4.34,0.05,0.15
14:38:53.948,0.0,0.0,0.01,-4.43,0.18,-0.09
14:38:53.956,0.01,0.0,0.01,-4.41,0.02,0.08
14:38:53.963,-0.0,0.01,0.01,-4.44,0.16,0.07
14:38:53.970,0.01,0.01,-0.0,-4.63,-0.0,-0.0
14:38:53.977,0.0,0.01,-0.01,-4.56,-0.06,0.08
14:38:53.985,0.01,0.0,-0.0,-4.44,-0.06,-0.11
14:38:53.992,0.0,-0.01,-0.0,-4.42,0.04,0.07
14:38:53.999,0.01,0.0,0.0,-4.44,0.01,0.1
14:38:54.006,0.0,0.0,-0.0,-4.49,-0.06,0.1
14:38:54.014,0.01,-0.01,-0.0,-4.51,0.06,0.13
14:38:54.021,0.01,0.01,0.0,-4.53,0.01,0.01
14:38:54.028,0.0,0.0,-0.0,-4.5,-0.03,0.08
14:38:54.036,0.01,0.01,-0.0,-4.53,0.02,0.07
14:38:54.043,0.0,0.0,-0.01,-4.64,-0.05,0.12
14:38:54.050,0.01,0.0,-0.0,-4.42,-0.12,0.06
14:38:54.057,0.01,0.0,0.0,-4.51,-0.03,-0.0
14:38:54.065,0.0,0.01,0.0,-4.56,-0.13,-0.03
14:38:54.072,-0.0,-0.01,-0.0,-4.51,0.1,0.04
14:38:54.079,0.01,0.0,-0.02,-4.56,-0.01,0.01
14:38:54.087,0.0,0.0,-0.0,-4.49,0.1,-0.06
14:38:54.094,0.01,0.01,-0.0,-4.68,0.04,-0.06
14:38:54.101,0.0,0.01,0.0,-4.32,0.12,0.06
14:38:54.109,0.0,-0.01,0.0,-4.49,0.15,0.03
14:38:54.116,0.0,0.0,0.0,-4.5,0.01,-0.01
14:38:54.124,0.0,0.0,-0.0,-4.45,-0.03,0.1
14:38:54.131,0.0,0.0,-0.0,-4.53,0.1,-0.01
14:38:54.138,-0.0,0.02,-0.01,-4.5,0.13,-0.09
14:38:54.146,0.0,0.0,0.0,-4.35,0.07,-0.04
14:38:54.153,0.01,-0.0,0.01,-4.44,-0.05,0.04
14:38:54.160,-0.0,0.0,-0.0,-4.52,-0.1,-0.09
14:38:54.168,0.0,0.01,0.0,-4.45,0.11,-0.01
14:38:54.175,0.01,0.01,-0.0,-4.44,-0.01,-0.04
14:38:54.182,0.01,0.01,-0.0,-4.53,-0.05,0.01
14:38:54.189,-0.0,0.0,-0.0,-4.54,0.12,0.01
14:38:54.197,0.0,-0.0,-0.01,-4.63,0.05,-0.0
14:38:54.204,-0.0,0.01,-0.0,-4.44,0.08,-0.05
14:38:54.211,0.0,0.01,0.0,-4.44,0.01,-0.11
14:38:54.219,0.01,0.01,-0.01,-4.43,0.11,0.1
14:38:54.226,-0.0,0.01,-0.01,-4.54,0.13,0.05
14:38:54.233,0.01,0.01,-0.0,-4.44,-0.09,0.04
14:38:54.240,0.01,0.0,-0.0,-4.55,0.11,-0.14
14:38:54.248,0.01,0.01,-0.0,-4.49,-0.05,-0.03
14:38:54.255,0.01,0.01,-0.0,-4.43,0.14,0.04
14:38:54.262,-0.0,0.02,-0.0,-4.4,-0.08,0.06
14:38:54.270,0.0,0.01,0.0,-4.4,0.06,0.01
14:38:54.277,0.0,0.01,-0.0,-4.63,-0.04,0.07
14:38:54.284,0.0,0.0,0.01,-4.47,-0.05,-0.06
14:38:54.291,0.0,0.01,-0.01,-4.34,0.04,-0.04
14:38:54.299,0.01,0.01,-0.0,-4.51,0.02,0.28
14:38:54.306,0.0,-0.0,0.0,-4.5,0.04,0.16
14:38:54.313,0.0,0.0,-0.0,-4.47,0.1,-0.0
14:38:54.321,-0.0,-0.01,0.01,-4.34,0.16,0.13
14:38:54.328,0.0,0.01,0.0,-4.45,0.1,-0.1
14:38:54.335,0.0,-0.0,-0.0,-4.51,-0.02,-0.04
14:38:54.342,0.01,0.01,0.0,-4.53,-0.11,0.09
14:38:54.350,0.01,0.0,-0.0,-4.4,0.04,0.03
14:38:54.357,0.01,0.0,0.0,-4.33,0.12,0.07
14:38:54.364,0.0,0.01,0.01,-4.5,-0.01,0.01
14:38:54.372,0.0,0.0,0.0,-4.36,0.13,0.02
14:38:54.379,0.0,0.01,-0.01,-4.6,-0.09,-0.04
14:38:54.386,0.0,0.0,0.0,-4.5,-0.0,-0.05
14:38:54.393,0.0,0.0,0.01,-4.52,-0.13,-0.06
14:38:54.401,0.01,0.0,-0.0,-4.46,0.02,-0.09
14:38:54.408,0.01,0.0,0.0,-4.53,0.1,-0.06
14:38:54.415,0.01,0.01,0.0,-4.53,0.21,0.06
14:38:54.422,-0.0,-0.0,-0.0,-4.37,-0.03,-0.05
14:38:54.430,0.01,0.0,-0.0,-4.41,-0.05,0.06
14:38:54.437,0.0,0.01,-0.0,-4.49,-0.03,-0.02
14:38:54.444,0.01,0.01,-0.01,-4.6,0.04,0.05
14:38:54.452,0.01,0.01,-0.01,-4.47,-0.1,-0.22
14:38:54.459,0.01,0.0,-0.01,-4.4,0.01,-0.09
14:38:54.466,0.01,0.0,-0.0,-4.48,-0.01,-0.06
14:38:54.473,-0.0,0.01,0.0,-4.44,0.02,0.1
14:38:54.481,0.01,-0.0,0.01,-4.6,-0.04,-0.0
14:38:54.488,0.01,0.01,-0.01,-4.53,0.11,0.01
14:38:54.495,0.01,-0.01,-0.0,-4.58,-0.09,0.07
14:38:54.503,0.0,0.01,-0.0,-4.34,0.03,-0.17
14:38:54.510,0.0,-0.01,-0.02,-4.55,-0.06,-0.02
14:38:54.517,-0.0,0.0,-0.0,-4.38,0.07,-0.07
14:38:54.524,-0.0,0.0,-0.0,-4.4,0.04,-0.09
14:38:54.532,0.0,0.02,0.0,-4.49,0.05,0.01
14:38:54.539,0.0,0.0,-0.02,-4.4,0.13,0.01
14:38:54.546,0.01,0.01,-0.0,-4.48,0.0,0.07
14:38:54.553,0.0,0.01,0.0,-4.49,0.04,-0.01
14:38:54.561,0.01,0.01,-0.02,-4.49,0.12,-0.0
14:38:54.568,0.01,0.0,-0.0,-4.41,0.18,-0.03
14:38:54.575,0.0,0.01,-0.0,-4.51,-0.08,0.02
14:38:54.583,0.0,0.0,-0.01,-4.52,-0.06,0.01
14:38:54.590,0.01,0.0,0.0,-4.51,0.07,0.05
14:38:54.597,0.0,0.0,0.01,-4.58,-0.09,0.09
14:38:54.604,0.0,0.0,0.01,-4.61,0.04,0.02
14:38:54.612,0.01,0.01,-0.0,-4.55,0.01,0.04
14:38:54.619,0.0,0.01,0.0,-4.5,-0.05,-0.09
14:38:54.626,0.0,-0.0,0.0,-4.39,0.05,-0.0
14:38:54.634,0.0,-0.01,0.01,-4.5,-0.16,-0.0
14:38:54.641,0.0,0.01,-0.02,-4.44,-0.09,0.07
14:38:54.648,0.0,0.01,0.0,-4.46,-0.09,0.06
14:38:54.655,0.01,-0.01,-0.0,-4.43,0.13,0.16
14:38:54.663,-0.0,0.0,-0.0,-4.44,0.13,0.1
14:38:54.670,-0.0,0.0,0.0,-4.56,0.03,0.13
14:38:54.677,-0.0,0.02,-0.0,-4.4,0.05,-0.1
14:38:54.684,0.01,0.0,0.0,-4.65,-0.06,0.1
14:38:54.692,0.01,0.0,-0.0,-4.57,0.07,-0.11
14:38:54.699,0.01,-0.01,-0.01,-4.53,0.19,0.1
14:38:54.706,0.0,0.0,-0.0,-4.51,-0.06,0.15
14:38:54.714,0.01,-0.0,-0.0,-4.44,0.13,-0.16
14:38:54.721,0.01,0.02,0.0,-4.61,0.09,-0.06
14:38:54.728,0.01,0.0,-0.0,-4.55,0.02,-0.05
14:38:54.735,0.01,-0.01,0.0,-4.5,0.12,0.01
14:38:54.743,0.01,0.0,-0.01,-4.56,0.12,0.01
14:38:54.750,0.01,0.0,-0.0,-4.44,-0.0,-0.04
14:38:54.757,0.03,0.02,0.0,-4.46,-0.11,-0.04
14:38:54.765,0.0,0.0,0.0,-4.39,-0.03,0.12
14:38:54.772,0.0,0.0,-0.01,-4.39,-0.08,-0.06
14:38:54.779,-0.0,0.0,0.01,-4.55,-0.12,0.11
14:38:54.787,0.0,0.0,-0.0,-4.39,0.11,0.04
14:38:54.794,0.01,0.01,-0.0,-4.36,-0.01,-0.12
14:38:54.801,0.0,0.0,0.01,-4.45,0.04,0.04
14:38:54.808,0.0,-0.0,-0.01,-4.48,0.0,0.14
14:38:54.816,0.01,-0.01,-0.0,-4.63,0.09,0.02
14:38:54.823,-0.0,0.0,-0.01,-4.52,0.1,-0.08
14:38:54.830,0.0,0.01,0.0,-4.41,0.23,0.04
14:38:54.837,-0.0,0.0,-0.0,-4.49,0.08,-0.07
14:38:54.845,0.0,0.01,0.01,-4.47,0.1,0.04
14:38:54.852,0.0,0.0,-0.0,-4.4,0.02,0.01
14:38:54.859,0.0,-0.01,0.01,-4.5,-0.06,0.03
14:38:54.867,-0.0,0.0,-0.0,-4.47,-0.01,0.1
14:38:54.874,0.0,0.0,0.0,-4.58,-0.08,-0.0
14:38:54.881,0.0,0.01,0.01,-4.39,0.2,0.01
14:38:54.888,0.0,-0.0,-0.0,-4.59,0.02,0.1
14:38:54.896,0.01,0.01,0.01,-4.56,0.1,-0.03
14:38:54.903,0.01,0.01,-0.0,-4.58,0.02,-0.1
14:38:54.910,0.01,-0.0,0.0,-4.5,-0.06,0.03
14:38:54.918,0.0,0.01,-0.01,-4.44,0.08,0.14
14:38:54.925,0.0,0.01,0.01,-4.4,-0.03,0.15
14:38:54.932,0.01,0.0,0.0,-4.43,-0.07,0.26
14:38:54.939,0.0,0.01,-0.0,-4.38,-0.09,0.04
14:38:54.947,0.0,0.0,-0.0,-4.52,0.13,-0.1
14:38:54.954,0.01,0.0,-0.01,-4.31,0.02,0.04
14:38:54.961,0.0,0.01,0.0,-4.47,0.0,-0.12
14:38:54.969,0.0,0.0,0.0,-4.47,-0.06,0.01
14:38:54.976,0.01,0.0,-0.0,-4.44,0.15,0.02
14:38:54.983,0.0,0.02,-0.0,-4.4,-0.05,-0.07
14:38:54.990,0.01,0.0,-0.0,-4.56,-0.13,0.05
14:38:54.998,0.0,0.0,-0.0,-4.66,-0.03,0.07
14:38:55.005,0.0,0.01,0.0,-4.57,0.07,-0.11
14:38:55.012,-0.0,0.0,-0.01,-4.47,-0.03,0.04
14:38:55.019,0.01,0.0,0.0,-4.57,-0.03,-0.07
14:38:55.027,0.01,-0.0,-0.0,-4.46,-0.06,-0.16
14:38:55.034,0.0,0.01,-0.01,-4.44,0.04,0.02
14:38:55.041,0.01,0.01,0.01,-4.53,0.0,-0.08
14:38:55.049,0.01,0.02,-0.01,-4.48,0.07,0.02
14:38:55.056,-0.0,0.0,-0.0,-4.5,-0.0,-0.04
14:38:55.063,0.0,0.01,-0.01,-4.44,0.04,-0.0
14:38:55.071,-0.0,-0.01,-0.0,-4.5,0.1,-0.16
14:38:55.078,0.0,0.0,0.0,-4.38,0.06,0.01
14:38:55.085,-0.0,0.01,0.01,-4.5,-0.04,0.01
14:38:55.092,-0.0,0.0,-0.0,-4.52,0.16,0.02
14:38:55.100,0.0,0.0,-0.0,-4.39,0.02,-0.09
14:38:55.107,0.0,-0.01,0.0,-4.5,0.13,-0.03
14:38:55.115,0.01,0.0,-0.0,-4.46,-0.09,0.07
14:38:55.122,-0.0,0.01,-0.0,-4.63,-0.06,-0.03
14:38:55.129,0.01,-0.0,-0.0,-4.54,0.0,0.02
14:38:55.137,0.01,0.02,-0.0,-4.46,-0.07,-0.07
14:38:55.144,0.0,0.02,0.01,-4.41,0.05,0.04
14:38:55.151,0.01,0.0,0.0,-4.63,-0.06,0.01
14:38:55.158,0.0,0.01,-0.0,-4.48,0.05,-0.03
14:38:55.166,0.0,0.0,0.01,-4.41,-0.04,0.1
14:38:55.173,-0.0,0.0,-0.01,-4.39,0.1,0.1
14:38:55.180,0.0,0.01,0.01,-4.47,0.17,-0.02
14:38:55.188,0.0,0.01,-0.01,-4.4,0.13,-0.04
14:38:55.195,0.0,-0.0,-0.0,-4.42,-0.03,0.09
14:38:55.202,0.0,0.0,-0.01,-4.61,-0.09,0.11
14:38:55.209,0.0,0.01,-0.0,-4.45,0.16,0.01
14:38:55.217,0.0,0.02,-0.01,-4.51,-0.07,0.01
14:38:55.224,0.0,0.01,-0.0,-4.47,-0.01,0.1
14:38:55.231,-0.0,0.01,0.0,-4.37,0.07,-0.02
14:38:55.239,0.01,-0.01,0.01,-4.44,0.13,-0.12
14:38:55.246,0.0,0.0,0.01,-4.47,0.14,-0.06
14:38:55.253,-0.0,0.0,-0.01,-4.44,0.17,-0.15
14:38:55.260,0.01,0.02,0.0,-4.38,0.16,0.02
14:38:55.268,-0.0,0.01,-0.01,-4.34,0.05,0.07
14:38:55.275,0.0,0.0,-0.0,-4.47,0.05,-0.14
14:38:55.282,0.01,0.0,0.0,-4.58,0.11,0.04
14:38:55.290,0.0,0.0,-0.0,-4.52,-0.04,0.13
14:38:55.297,0.0,0.0,0.0,-4.43,0.01,-0.08
14:38:55.304,0.0,-0.0,0.01,-4.44,-0.0,-0.06
14:38:55.311,0.0,-0.0,0.01,-4.46,0.03,0.13
14:38:55.319,0.01,0.01,-0.0,-4.4,0.01,-0.07
14:38:55.326,0.0,0.01,0.0,-4.36,-0.04,0.1
14:38:55.333,0.0,0.0,-0.01,-4.57,0.05,0.04
14:38:55.341,-0.0,0.01,0.01,-4.54,-0.09,-0.09
14:38:55.348,0.0,0.01,-0.0,-4.49,-0.05,-0.11
14:38:55.355,0.0,0.01,-0.0,-4.38,0.05,0.01
14:38:55.362,-0.0,0.01,-0.01,-4.45,0.04,0.04
14:38:55.370,0.0,0.01,-0.0,-4.59,-0.12,-0.23
14:38:55.377,0.0,0.01,-0.01,-4.63,-0.0,0.02
14:38:55.384,0.0,-0.01,0.0,-4.41,0.1,-0.04
14:38:55.391,0.01,0.0,-0.0,-4.42,-0.02,-0.06
14:38:55.399,0.0,-0.0,-0.01,-4.52,0.08,-0.15
14:38:55.406,0.01,0.01,0.0,-4.43,-0.07,0.04
14:38:55.413,0.0,0.0,-0.0,-4.44,0.21,-0.05
14:38:55.421,0.0,0.01,-0.0,-4.6,0.1,0.04
14:38:55.428,0.01,0.0,-0.01,-4.48,0.08,-0.12
14:38:55.435,0.01,0.01,-0.0,-4.54,-0.0,-0.03
14:38:55.443,0.01,0.0,-0.0,-4.56,0.12,-0.0
14:38:55.450,0.0,0.0,-0.0,-4.59,-0.03,-0.11
14:38:55.457,0.0,0.0,-0.0,-4.44,-0.01,-0.05
14:38:55.465,0.0,0.02,-0.02,-4.55,0.13,0.02
14:38:55.472,0.01,0.0,0.0,-4.37,0.01,-0.09
14:38:55.479,0.01,0.01,-0.0,-4.49,-0.1,-0.06
14:38:55.486,0.0,0.01,-0.0,-4.46,0.1,0.07
14:38:55.494,-0.0,0.0,0.0,-4.47,0.04,0.09
14:38:55.501,-0.0,-0.0,-0.02,-4.53,-0.05,0.09
14:38:55.508,-0.0,0.01,0.0,-4.61,0.1,0.01
14:38:55.516,0.0,-0.0,-0.0,-4.43,0.07,-0.12
14:38:55.523,-0.0,0.0,-0.0,-4.5,-0.03,0.16
14:38:55.530,-0.01,-0.0,0.0,-4.41,-0.12,0.04
14:38:55.537,-0.0,0.0,-0.0,-4.54,0.05,0.2
14:38:55.545,0.0,-0.01,0.01,-4.52,-0.05,0.09
14:38:55.552,0.0,0.0,0.0,-4.54,0.05,0.33
14:38:55.559,-0.0,0.01,-0.01,-4.44,-0.03,0.17
14:38:55.566,0.0,0.01,-0.0,-4.45,0.13,0.14
14:38:55.574,-0.0,0.0,-0.0,-4.4,-0.0,0.13
14:38:55.581,0.0,0.0,0.0,-4.64,0.05,-0.06
14:38:55.588,-0.0,0.0,0.0,-4.44,-0.2,0.18
14:38:55.596,0.01,0.0,0.0,-4.43,0.0,0.01
14:38:55.603,0.0,0.01,0.01,-4.66,-0.13,-0.06
14:38:55.610,0.01,0.0,-0.0,-4.66,0.02,0.01
14:38:55.618,0.0,0.0,-0.0,-4.46,-0.06,-0.0
14:38:55.625,0.0,0.01,-0.0,-4.36,-0.16,0.23
14:38:55.632,0.01,0.0,-0.0,-4.62,0.0,0.18
14:38:55.639,0.01,0.0,-0.01,-4.5,0.07,-0.07
14:38:55.647,0.01,0.01,0.0,-4.45,0.04,0.04
14:38:55.654,0.01,0.0,0.0,-4.43,-0.03,-0.1
14:38:55.661,0.01,0.01,-0.0,-4.4,-0.03,-0.02
14:38:55.669,0.01,0.0,-0.02,-4.35,-0.05,0.1
14:38:55.676,0.0,0.0,0.0,-4.43,0.16,-0.08
14:38:55.683,0.0,-0.01,-0.0,-4.51,0.05,-0.12
14:38:55.690,0.01,-0.0,-0.01,-4.46,0.06,-0.19
14:38:55.698,0.0,0.0,0.0,-4.34,0.07,0.04
14:38:55.705,0.01,0.0,0.01,-4.38,-0.12,-0.0
14:38:55.712,0.0,0.01,-0.0,-4.49,-0.06,0.03
14:38:55.720,-0.0,0.0,-0.0,-4.5,0.07,-0.03
14:38:55.727,0.01,0.01,-0.0,-4.58,0.06,0.07
14:38:55.734,0.0,0.01,0.0,-4.54,-0.09,-0.02
14:38:55.741,0.0,0.0,-0.0,-4.41,0.08,0.02
14:38:55.749,0.0,-0.0,0.01,-4.47,0.07,0.01
14:38:55.756,0.0,0.0,-0.01,-4.59,0.13,0.01
14:38:55.763,0.0,0.0,-0.0,-4.56,-0.05,-0.12
14:38:55.770,0.0,0.0,0.0,-4.34,0.07,-0.01
14:38:55.778,0.01,0.01,0.01,-4.37,0.11,-0.15
14:38:55.785,0.0,0.0,0.01,-4.5,0.2,-0.16
14:38:55.792,0.01,-0.0,0.01,-4.53,0.02,-0.03
14:38:55.800,0.0,0.0,-0.0,-4.53,-0.02,0.03
14:38:55.807,0.0,-0.01,0.01,-4.53,-0.18,-0.22
14:38:55.814,0.0,0.0,-0.0,-4.54,-0.1,0.04
14:38:55.821,0.01,0.0,0.01,-4.47,0.08,-0.17
14:38:55.829,0.0,0.0,-0.0,-4.45,0.07,0.04
14:38:55.836,0.01,0.0,-0.01,-4.46,0.02,0.1
14:38:55.843,0.01,0.0,-0.01,-4.56,0.07,0.04
14:38:55.851,0.0,0.01,-0.01,-4.47,0.07,0.07
14:38:55.858,-0.0,0.0,-0.0,-4.31,-0.0,-0.01
14:38:55.865,0.0,-0.0,0.0,-4.6,0.08,0.15
14:38:55.872,0.0,0.0,0.0,-4.55,-0.25,0.08
14:38:55.880,-0.0,0.0,-0.0,-4.55,0.13,0.04
14:38:55.887,-0.0,0.02,0.0,-4.57,-0.07,0.01
14:38:55.894,0.0,0.01,0.01,-4.58,-0.0,0.1
14:38:55.901,-0.0,0.0,0.0,-4.63,0.04,0.1
14:38:55.909,-0.0,-0.01,0.0,-4.65,0.0,0.02
14:38:55.916,0.0,0.0,0.0,-4.55,-0.02,-0.16
14:38:55.923,0.0,0.0,-0.0,-4.47,-0.09,0.09
14:38:55.931,-0.0,0.01,-0.0,-4.26,0.08,0.07
14:38:55.938,0.01,0.01,0.01,-4.63,-0.06,0.07
14:38:55.945,0.01,0.01,-0.0,-4.41,-0.01,-0.01
14:38:55.952,0.01,-0.01,0.0,-4.46,0.06,-0.09
14:38:55.960,0.0,0.0,-0.01,-4.47,0.12,0.05
14:38:55.967,0.0,0.01,-0.0,-4.39,0.06,0.1
14:38:55.974,-0.0,0.0,0.0,-4.51,-0.07,0.1
14:38:55.982,0.0,0.0,0.01,-4.46,0.14,0.15
14:38:55.989,0.0,0.0,0.01,-4.37,-0.09,-0.08
14:38:55.996,0.0,0.01,0.01,-4.44,-0.03,0.19
14:38:56.003,0.0,0.01,-0.01,-4.57,-0.19,0.09
14:38:56.011,0.0,-0.01,-0.01,-4.53,-0.01,0.02
14:38:56.018,-0.0,0.01,-0.0,-4.35,0.04,0.03
14:38:56.025,0.01,0.0,0.0,-4.37,-0.08,-0.06
14:38:56.032,0.01,0.01,0.01,-4.44,-0.22,-0.02
14:38:56.040,0.0,0.01,-0.0,-4.58,-0.0,0.03
14:38:56.047,0.0,-0.0,0.0,-4.5,-0.05,0.01
14:38:56.054,0.01,0.01,0.0,-4.37,0.11,0.04
14:38:56.061,0.0,0.0,0.0,-4.6,-0.03,0.07
14:38:56.069,0.01,0.01,-0.01,-4.47,-0.1,0.02
14:38:56.076,0.0,-0.01,0.0,-4.53,-0.09,0.01
14:38:56.083,0.0,0.01,0.01,-4.49,-0.06,0.09
14:38:56.091,0.01,0.01,-0.0,-4.45,0.07,0.01
14:38:56.098,0.02,0.01,-0.0,-4.56,0.04,0.01
14:38:56.105,0.0,0.0,0.0,-4.44,0.03,-0.09
14:38:56.112,0.01,0.0,-0.0,-4.44,0.1,0.02
14:38:56.120,-0.0,0.01,-0.0,-4.55,0.05,0.1
14:38:56.127,0.01,0.0,-0.0,-4.46,0.14,-0.09
14:38:56.135,0.0,0.01,-0.0,-4.47,0.04,-0.12
14:38:56.142,-0.0,0.0,-0.01,-4.51,-0.06,-0.08
14:38:56.149,0.01,0.01,-0.0,-4.49,-0.01,0.04
14:38:56.157,0.0,0.0,0.0,-4.47,-0.06,-0.09
14:38:56.164,0.0,0.01,0.0,-4.42,0.04,0.04
14:38:56.171,0.01,0.01,-0.01,-4.52,0.04,0.1
14:38:56.178,-0.0,0.0,0.0,-4.47,0.04,0.01
14:38:56.186,0.01,0.0,0.01,-4.44,-0.08,-0.04
14:38:56.193,0.0,0.0,-0.0,-4.53,0.02,-0.09
14:38:56.200,0.01,0.0,0.0,-4.46,-0.03,0.09
14:38:56.208,0.01,0.0,-0.0,-4.44,-0.06,-0.06
14:38:56.215,0.01,0.01,0.01,-4.56,0.07,-0.04
14:38:56.222,0.0,0.0,-0.0,-4.5,0.07,0.23
14:38:56.229,0.0,0.01,-0.0,-4.54,-0.08,0.1
14:38:56.237,0.0,0.0,-0.0,-4.61,-0.11,0.01
14:38:56.244,0.01,0.0,0.01,-4.48,-0.1,0.04
14:38:56.251,0.01,0.0,-0.0,-4.55,0.16,0.09
14:38:56.259,0.0,-0.0,-0.0,-4.5,0.11,0.03
14:38:56.266,0.01,0.0,-0.01,-4.45,0.16,-0.09
14:38:56.273,0.0,0.0,0.0,-4.47,-0.0,-0.03
14:38:56.280,0.01,0.01,0.0,-4.37,0.01,0.14
14:38:56.288,-0.0,0.01,0.0,-4.38,-0.04,-0.09
14:38:56.295,0.0,-0.01,-0.0,-4.57,0.01,0.14
14:38:56.302,0.01,0.0,-0.02,-4.54,0.06,-0.02
14:38:56.309,0.01,0.0,-0.01,-4.52,-0.11,0.13
14:38:56.317,-0.0,0.01,-0.0,-4.47,-0.03,0.12
14:38:56.324,0.0,0.01,0.0,-4.63,-0.13,0.17
14:38:56.331,0.0,0.01,0.01,-4.45,-0.03,0.1
14:38:56.339,-0.0,0.02,0.01,-4.38,-0.02,0.2
14:38:56.346,0.0,0.0,-0.01,-4.42,-0.09,-0.11
14:38:56.353,-0.0,0.0,-0.01,-4.48,-0.01,-0.07
14:38:56.360,-0.0,0.02,-0.0,-4.48,-0.09,0.15
14:38:56.368,0.0,-0.0,0.01,-4.45,0.07,0.09
14:38:56.375,0.0,0.0,0.0,-4.45,-0.1,0.11
14:38:56.382,0.0,0.01,-0.0,-4.49,0.01,-0.01
14:38:56.390,-0.0,-0.0,-0.0,-4.47,0.0,0.18
14:38:56.397,0.01,0.01,-0.0,-4.56,0.02,0.04
14:38:56.404,0.0,0.01,0.0,-4.44,0.08,-0.02
14:38:56.411,0.0,0.0,-0.0,-4.44,0.06,0.03
14:38:56.419,0.01,0.0,0.0,-4.43,0.01,-0.0
14:38:56.426,0.0,-0.0,0.0,-4.44,0.1,0.06
14:38:56.433,0.01,-0.0,-0.01,-4.37,-0.07,-0.01
14:38:56.441,0.0,-0.01,0.01,-4.5,0.02,0.13
14:38:56.448,0.01,0.0,-0.0,-4.62,-0.06,-0.07
14:38:56.455,0.01,0.01,-0.01,-4.66,0.0,0.02
14:38:56.462,0.01,0.02,-0.0,-4.47,-0.0,-0.0
14:38:56.470,0.0,0.0,-0.01,-4.51,0.11,-0.0
14:38:56.477,0.0,0.0,-0.01,-4.44,0.01,0.06
14:38:56.484,-0.0,-0.0,0.0,-4.45,-0.03,0.01
14:38:56.492,0.0,0.0,-0.01,-4.43,0.14,0.08
14:38:56.499,0.0,0.01,0.0,-4.63,0.13,-0.03
14:38:56.506,0.0,-0.0,-0.01,-4.36,0.01,-0.0
14:38:56.513,0.0,0.0,-0.0,-4.56,0.11,-0.11
14:38:56.521,0.01,0.0,0.0,-4.37,0.16,0.02
14:38:56.528,0.0,0.01,-0.0,-4.47,0.04,-0.06
14:38:56.535,0.01,0.0,-0.0,-4.63,0.07,0.04
14:38:56.542,0.0,0.01,0.02,-4.58,0.1,0.01
14:38:56.550,0.0,0.01,-0.01,-4.59,0.04,-0.03
14:38:56.557,-0.0,0.01,-0.01,-4.47,0.1,0.01
14:38:56.564,0.0,-0.01,0.0,-4.54,-0.02,-0.0
14:38:56.572,0.01,0.01,-0.0,-4.5,-0.02,-0.09
14:38:56.579,0.01,0.0,-0.0,-4.4,0.09,0.09
14:38:56.586,0.0,0.02,0.01,-4.39,0.0,0.05
14:38:56.593,0.0,0.01,-0.01,-4.51,-0.01,-0.02
14:38:56.601,-0.0,0.01,-0.01,-4.41,0.07,0.05
14:38:56.608,0.0,0.01,-0.01,-4.63,0.13,0.1
14:38:56.615,-0.0,0.01,-0.0,-4.34,0.2,-0.02
14:38:56.623,0.01,-0.01,0.01,-4.4,-0.02,0.14
14:38:56.630,0.01,0.0,-0.01,-4.44,-0.03,-0.03
14:38:56.637,0.0,0.0,-0.01,-4.55,-0.08,0.04
14:38:56.644,0.01,-0.0,-0.0,-4.45,0.06,-0.03
14:38:56.652,0.0,0.01,0.0,-4.63,-0.06,-0.03
14:38:56.659,0.0,-0.0,-0.0,-4.48,0.0,-0.12
14:38:56.666,0.0,0.0,-0.0,-4.59,-0.03,-0.04
14:38:56.673,-0.0,0.02,0.0,-4.39,-0.09,-0.05
14:38:56.681,0.01,0.01,-0.0,-4.52,0.0,-0.0
14:38:56.688,-0.0,0.01,-0.01,-4.53,0.05,-0.0
14:38:56.695,0.0,0.01,-0.0,-4.4,0.13,-0.07
14:38:56.702,0.01,0.01,0.0,-4.49,0.02,0.07
14:38:56.710,-0.0,0.0,-0.0,-4.47,-0.04,0.03
14:38:56.717,0.01,-0.0,0.01,-4.45,0.03,0.07
14:38:56.724,0.0,-0.0,-0.0,-4.62,0.13,0.1
14:38:56.732,0.01,0.0,-0.01,-4.51,-0.23,0.07
14:38:56.739,0.0,-0.0,-0.0,-4.31,0.06,-0.07
14:38:56.746,-0.0,0.0,-0.0,-4.5,-0.04,0.02
14:38:56.753,-0.0,0.0,-0.0,-4.54,-0.04,0.23
14:38:56.761,-0.0,0.01,-0.0,-4.45,0.03,0.05
14:38:56.768,0.0,0.01,-0.0,-4.44,-0.09,0.12
14:38:56.775,0.0,0.01,0.0,-4.47,-0.1,-0.06
14:38:56.783,0.01,0.01,-0.0,-4.54,0.01,0.01
14:38:56.790,0.0,0.02,-0.0,-4.53,-0.05,-0.06
14:38:56.797,0.01,0.0,-0.0,-4.41,0.04,0.2
14:38:56.805,0.0,0.0,0.0,-4.4,0.0,-0.0
14:38:56.812,0.0,0.0,0.0,-4.45,0.13,-0.06
14:38:56.819,0.0,-0.0,-0.0,-4.37,0.06,-0.09
14:38:56.826,0.0,0.01,0.01,-4.57,0.01,0.17
14:38:56.834,0.0,0.01,0.0,-4.56,-0.06,0.08
14:38:56.841,0.01,0.0,-0.0,-4.52,-0.04,0.02
14:38:56.848,0.01,0.0,-0.0,-4.5,0.0,0.14
14:38:56.855,-0.0,0.0,-0.01,-4.47,-0.21,0.19
14:38:56.863,0.01,0.01,-0.0,-4.5,0.12,0.03
14:38:56.870,0.01,0.01,-0.0,-4.59,0.09,-0.03
14:38:56.877,0.01,-0.01,-0.02,-4.35,-0.06,0.11
14:38:56.885,0.01,-0.0,0.0,-4.59,0.1,-0.15
14:38:56.892,0.0,0.0,-0.0,-4.47,-0.09,-0.08
14:38:56.899,0.01,0.0,0.0,-4.49,-1.67,0.05
14:38:56.907,0.01,-0.0,0.0,-4.52,0.02,-0.17
14:38:56.914,0.02,0.0,-0.0,-4.48,0.2,-0.19
14:38:56.921,0.01,0.0,0.0,-4.44,0.14,-0.09
14:38:56.928,0.0,0.01,-0.01,-4.4,0.04,-0.19
14:38:56.936,0.0,0.01,-0.0,-4.6,0.3,-0.14
14:38:56.943,0.01,0.0,0.0,-4.4,0.06,-0.17
14:38:56.950,0.01,0.01,-0.0,-4.48,0.2,-0.14
14:38:56.957,0.0,0.01,-0.02,-4.57,0.1,-0.01
14:38:56.965,0.0,-0.0,0.0,-4.45,0.16,0.03
14:38:56.972,0.01,0.01,-0.01,-4.55,0.0,-0.1
14:38:56.979,-0.0,-0.01,0.0,-4.51,-0.06,-0.14
14:38:56.987,0.0,0.0,-0.0,-4.44,0.08,-0.09
14:38:56.994,-0.0,0.01,0.0,-4.44,0.16,-0.12
14:38:57.001,0.01,0.0,-0.0,-4.55,0.05,-0.03
14:38:57.008,0.01,0.01,0.0,-4.39,0.1,-0.1
14:38:57.016,-0.0,0.02,-0.0,-4.42,0.14,-0.12
14:38:57.023,0.0,0.0,-0.0,-4.56,0.09,-0.2
14:38:57.030,-0.0,-0.0,-0.0,-4.44,-0.01,-0.06
14:38:57.038,-0.02,0.0,-0.0,-4.48,0.05,-0.22
14:38:57.045,0.0,-0.0,-0.01,-4.54,0.16,0.07
14:38:57.052,0.01,0.0,-0.01,-4.33,-0.01,-0.09
14:38:57.059,0.02,0.01,-0.0,-4.45,0.02,0.03
14:38:57.067,0.0,0.0,-0.0,-4.51,0.11,-0.16
14:38:57.074,0.0,0.01,-0.0,-4.56,-0.01,-0.05
14:38:57.081,0.0,0.01,-0.02,-4.43,0.15,-0.12
14:38:57.088,0.0,0.0,-0.0,-4.58,0.15,-0.06
14:38:57.096,-0.0,0.0,0.0,-4.42,-0.05,0.08
14:38:57.103,0.0,0.0,0.0,-4.34,-0.02,-0.05
14:38:57.110,-0.0,0.01,-0.0,-4.47,-0.03,-0.04
14:38:57.118,0.0,0.0,-0.0,-4.53,-0.09,-0.12
14:38:57.125,0.0,0.0,0.0,-4.56,0.1,0.07
14:38:57.132,-0.0,-0.01,0.0,-4.5,-0.13,0.04
14:38:57.140,0.0,0.01,0.0,-4.5,0.12,0.12
14:38:57.147,0.0,-0.0,-0.01,-4.42,-0.03,0.04
14:38:57.154,-0.0,0.01,0.01,-4.6,-0.22,0.18
14:38:57.162,-0.0,0.01,-0.0,-4.44,0.02,0.01
14:38:57.169,0.0,0.01,0.0,-4.6,-0.21,-0.06
14:38:57.176,0.0,0.0,0.01,-4.6,0.06,0.17
14:38:57.183,0.01,0.01,-0.0,-4.43,-0.09,0.11
14:38:57.191,0.0,0.01,-0.0,-4.53,0.16,0.15
14:38:57.198,0.0,-0.0,0.0,-4.6,-0.07,0.15
14:38:57.205,0.01,-0.0,0.0,-4.55,0.01,0.32
14:38:57.213,0.0,0.0,-0.0,-4.4,0.13,0.12
14:38:57.220,0.0,0.0,0.0,-4.41,-0.26,0.04
14:38:57.227,0.0,0.0,-0.0,-4.56,-0.03,0.01
14:38:57.234,0.0,-0.0,0.0,-4.58,0.07,0.03
14:38:57.242,0.0,0.01,-0.0,-4.5,-0.26,0.01
14:38:57.249,0.01,0.0,0.01,-4.4,-0.0,0.1
14:38:57.256,0.01,0.02,0.0,-4.36,-0.06,0.05
14:38:57.264,0.0,0.01,-0.0,-4.4,-0.15,0.13
14:38:57.271,0.0,0.0,-0.0,-4.5,-0.01,0.13
14:38:57.278,-0.0,-0.01,-0.0,-4.55,-0.09,0.08
14:38:57.285,0.01,-0.01,-0.0,-4.46,-0.03,0.04
14:38:57.293,0.0,0.02,0.01,-4.43,0.05,0.06
14:38:57.300,0.0,-0.01,0.02,-4.38,0.02,-0.06
14:38:57.307,0.01,0.0,-0.0,-4.45,-0.05,0.04
14:38:57.315,0.0,0.0,0.0,-4.36,0.02,-0.05
14:38:57.322,0.01,0.01,0.0,-4.42,0.12,-0.02
14:38:57.329,0.01,0.0,-0.0,-4.5,0.06,-0.13
14:38:57.336,0.0,0.01,-0.01,-4.42,0.03,-0.06
14:38:57.344,0.01,0.01,-0.01,-4.47,0.04,-0.09
14:38:57.351,0.0,0.0,-0.01,-4.5,0.07,-0.01
14:38:57.358,0.0,0.01,-0.02,-4.4,0.24,-0.11
14:38:57.366,0.0,0.01,-0.0,-4.55,0.08,0.07
14:38:57.373,0.01,0.0,-0.01,-4.61,0.09,0.07
14:38:57.380,0.0,-0.01,0.01,-4.4,0.08,0.08
14:38:57.387,0.01,0.0,0.0,-4.62,0.13,0.04
14:38:57.395,0.01,0.0,-0.0,-4.53,-0.05,0.04
14:38:57.402,0.0,0.02,-0.0,-4.6,0.03,-0.1
14:38:57.409,0.0,0.01,0.0,-4.43,0.13,0.03
14:38:57.416,-0.0,0.01,-0.0,-4.44,0.18,-0.2
14:38:57.424,0.0,0.01,-0.02,-4.59,0.04,-0.11
14:38:57.431,0.01,0.01,0.0,-4.48,-0.0,0.01
14:38:57.438,-0.0,0.01,0.0,-4.55,0.04,0.01
14:38:57.446,0.01,0.01,-0.01,-4.5,0.08,-0.08
14:38:57.453,0.0,0.01,-0.01,-4.63,0.13,-0.09
14:38:57.460,-0.0,-0.01,-0.0,-4.54,0.1,0.12
14:38:57.467,-0.0,0.0,-0.0,-4.47,0.03,-0.1
14:38:57.475,-0.0,0.0,-0.0,-4.19,-0.13,-0.03
14:38:57.482,-0.0,0.0,0.0,-4.57,0.18,0.05
14:38:57.489,0.01,0.01,0.0,-4.56,0.04,0.03
14:38:57.497,0.0,0.01,0.0,-4.54,-0.06,-0.03
14:38:57.504,0.01,0.0,0.0,-4.47,-0.06,0.01
14:38:57.511,0.0,0.01,-0.0,-4.55,0.07,0.03
14:38:57.518,0.0,0.0,0.0,-4.44,-0.09,-0.01
14:38:57.526,0.0,-0.0,-0.0,-4.48,-0.0,-0.0
14:38:57.533,0.0,0.0,-0.01,-4.48,-0.03,0.01
14:38:57.540,0.0,0.0,0.0,-4.47,0.19,0.01
14:38:57.547,0.0,0.01,0.01,-4.47,0.03,0.04
14:38:57.555,0.0,-0.0,-0.0,-4.43,-0.06,0.07
14:38:57.562,0.01,0.0,0.0,-4.5,-0.08,0.01
14:38:57.569,0.01,0.01,-0.0,-4.49,-0.04,0.04
14:38:57.577,0.0,0.0,-0.01,-4.53,0.07,0.09
14:38:57.584,0.0,0.01,0.01,-4.62,0.03,-0.09
14:38:57.591,0.0,0.01,-0.0,-4.4,-0.05,0.12
14:38:57.598,-0.0,0.0,-0.01,-4.37,-0.08,0.14
14:38:57.606,0.0,0.0,0.01,-4.51,0.04,0.17
