timestamp,acc_x,acc_y,acc_z,gyr_x,gyr_y,gyr_z
15:05:57.368,0.0,0.0,0.0,-4.44,0.01,-0.12
15:05:57.376,0.0,0.0,0.01,-4.56,0.09,0.13
15:05:57.384,-0.0,0.0,-0.02,-4.54,-0.08,0.03
15:05:57.391,0.0,0.01,0.01,-4.52,0.03,-0.14
15:05:57.398,0.0,0.0,0.01,-4.47,-0.05,-0.13
15:05:57.406,0.0,0.0,-0.0,-4.31,-1.85,-0.03
15:05:57.413,-0.01,-0.0,0.0,-4.68,0.07,-0.0
15:05:57.421,0.0,0.0,-0.0,-4.46,-0.15,-0.04
15:05:57.428,0.0,0.01,-0.0,-4.59,0.14,0.03
15:05:57.436,-0.0,0.0,0.0,-4.37,-0.02,-0.07
15:05:57.443,-0.0,-0.0,0.0,-4.49,-0.1,-0.03
15:05:57.450,-0.0,0.01,-0.0,-4.6,0.01,0.09
15:05:57.457,-0.01,0.02,0.01,-4.4,1.87,0.08
15:05:57.465,-0.01,-0.0,0.01,-4.4,0.05,1.92
15:05:57.472,-0.01,0.0,-0.0,-4.37,0.19,-0.01
15:05:57.479,-0.01,-0.0,0.0,-4.34,-0.08,-1.87
15:05:57.486,-0.01,0.01,0.01,-4.5,0.06,0.18
15:05:57.493,-0.01,0.0,-0.0,-4.48,-0.12,0.21
15:05:57.500,-0.01,0.0,-0.0,-4.47,-0.08,0.15
15:05:57.507,0.0,0.0,-0.0,-4.31,0.2,0.26
15:05:57.515,-0.0,0.0,0.01,-4.5,-0.01,0.17
15:05:57.522,0.0,0.0,-0.0,-4.52,-0.12,-0.02
15:05:57.529,-0.0,0.01,-0.0,-4.42,-0.12,0.2
15:05:57.536,-0.0,0.0,-0.0,-4.41,0.07,-0.13
15:05:57.543,-0.0,0.0,0.0,-4.36,0.01,-0.14
15:05:57.550,-0.01,0.0,-0.0,-4.57,1.92,0.02
15:05:57.558,-0.0,-0.01,-0.01,-4.58,-0.24,0.18
15:05:57.565,-0.0,-0.0,-0.01,-4.58,-0.06,0.07
15:05:57.572,-0.0,0.0,0.0,-4.46,-1.95,0.07
15:05:57.580,0.0,-0.0,-0.01,-4.39,0.02,1.9
15:05:57.587,0.0,0.0,0.01,-4.48,-0.11,0.03
15:05:57.595,0.0,0.01,-0.0,-4.28,0.16,0.03
15:05:57.602,0.0,0.01,0.01,-4.33,0.21,-0.15
15:05:57.609,-0.0,-0.0,0.01,-4.61,-0.0,-0.13
15:05:57.617,0.0,0.0,-0.0,-4.49,0.05,-0.05
15:05:57.624,-0.0,0.0,0.01,-4.44,-0.28,-1.97
15:05:57.631,-0.0,0.01,0.0,-4.5,0.22,-0.14
15:05:57.638,-0.0,0.0,0.0,-4.27,0.11,-0.26
15:05:57.646,-0.0,-0.01,-0.01,-4.39,0.08,-0.2
15:05:57.653,-0.0,0.0,0.0,-4.5,-1.94,-0.23
15:05:57.660,-0.0,0.01,-0.01,-4.48,0.11,-0.44
15:05:57.668,-0.0,-0.01,-0.02,-4.56,0.19,-0.2
15:05:57.675,-0.0,0.0,0.01,-4.51,-0.05,-0.29
15:05:57.682,-0.0,0.01,0.01,-4.4,1.91,-0.06
15:05:57.689,-0.01,0.0,0.01,-4.32,0.13,-0.32
15:05:57.697,-0.01,0.0,0.01,-4.66,0.14,-0.28
15:05:57.704,-0.01,0.0,-0.0,-4.41,0.21,-0.24
15:05:57.711,-0.0,0.01,0.01,-4.36,0.17,-0.32
15:05:57.719,-0.0,-0.0,-0.0,-4.62,0.14,-0.22
15:05:57.726,-0.01,0.0,0.01,-4.73,0.07,-0.35
15:05:57.733,-0.02,0.0,-0.0,-4.48,0.16,-0.43
15:05:57.741,-0.01,0.0,-0.0,-4.38,0.13,-0.27
15:05:57.748,-0.0,0.0,0.0,-4.46,0.18,-0.28
15:05:57.755,-0.01,0.01,-0.01,-4.47,0.05,-0.39
15:05:57.762,-0.01,0.0,0.01,-4.47,0.05,-0.25
15:05:57.770,-0.01,0.0,0.0,-4.44,0.2,-0.43
15:05:57.777,-0.01,0.0,-0.01,-4.51,0.08,-0.09
15:05:57.784,-0.01,0.0,-0.0,-4.5,0.24,-0.19
15:05:57.792,-0.01,0.0,-0.0,-4.54,0.07,-0.32
15:05:57.799,-0.01,0.0,-0.0,-4.44,0.14,-0.29
15:05:57.806,-0.01,0.0,0.0,-4.53,0.21,-0.23
15:05:57.813,-0.01,0.01,0.01,-4.27,1.93,-0.22
15:05:57.821,-0.01,0.0,0.0,-4.53,-1.92,-0.16
15:05:57.828,-0.01,-0.0,-0.0,-4.34,0.08,-1.97
15:05:57.835,-0.01,0.01,-0.01,-4.5,0.19,-0.56
15:05:57.843,-0.02,0.0,-0.0,-4.37,0.11,-0.07
15:05:57.850,-0.01,-0.0,-0.02,-4.49,0.14,-0.08
15:05:57.857,-0.0,0.0,0.0,-4.33,0.04,-0.19
15:05:57.864,-0.01,0.0,0.0,-4.53,0.19,-0.18
15:05:57.872,-0.01,0.0,-0.02,-4.4,0.1,-0.34
15:05:57.879,-0.01,0.0,-0.0,-4.37,0.09,-0.23
15:05:57.886,-0.01,-0.0,0.0,-4.37,0.2,-0.39
15:05:57.894,-0.01,0.01,-0.01,-4.51,1.93,-0.23
15:05:57.901,-0.0,0.01,0.0,-4.5,0.05,-0.45
15:05:57.908,-0.01,0.01,0.0,-4.41,0.12,-0.39
15:05:57.915,-0.02,0.01,-0.0,-4.53,0.15,-0.38
15:05:57.923,-0.01,-0.0,0.01,-4.43,0.22,-0.33
15:05:57.930,-0.0,-0.0,0.01,-4.38,0.4,-0.51
15:05:57.937,-0.01,0.0,-0.0,-4.38,0.11,-0.49
15:05:57.945,-0.0,0.0,-0.01,-4.3,0.2,-0.45
15:05:57.952,-0.0,0.0,0.01,-4.5,0.27,-0.65
15:05:57.959,-0.01,0.01,-0.0,-4.41,0.25,-0.58
15:05:57.967,0.0,-0.0,-0.01,-4.39,0.4,-0.52
15:05:57.974,-0.02,0.0,0.0,-4.41,0.28,-0.42
15:05:57.981,-0.01,0.01,-0.0,-4.41,0.13,-0.46
15:05:57.988,-0.01,0.0,-0.02,-4.53,0.24,-0.63
15:05:57.996,-0.02,0.0,-0.01,-4.3,0.12,-0.33
15:05:58.003,-0.02,0.01,0.0,-4.55,0.21,-0.36
15:05:58.010,-0.02,-0.01,0.0,-4.33,0.09,-0.29
15:05:58.017,-0.02,0.01,-0.0,-4.56,0.18,-0.23
15:05:58.025,-0.01,0.01,0.01,-4.66,0.05,-0.19
15:05:58.032,-0.02,0.01,-0.0,-4.36,0.08,-0.35
15:05:58.039,-0.03,0.01,-0.0,-4.49,0.23,-0.26
15:05:58.047,-0.02,0.0,0.0,-4.51,0.18,-0.17
15:05:58.054,-0.02,0.0,-0.0,-4.51,0.02,-0.07
15:05:58.061,-0.02,0.0,-0.0,-4.44,-0.08,-0.14
15:05:58.068,-0.02,0.0,-0.01,-4.47,-0.03,-1.97
15:05:58.076,-0.04,-0.0,-0.01,-4.54,-0.04,0.22
15:05:58.083,-0.03,0.0,-0.0,-4.43,-0.15,0.18
15:05:58.090,-0.03,-0.0,-0.0,-4.53,-0.23,0.23
15:05:58.098,-0.03,0.01,-0.01,-4.63,-0.13,0.48
15:05:58.105,-0.03,0.01,-0.0,-4.5,-0.21,0.73
15:05:58.112,-0.04,0.0,-0.01,-4.44,-0.34,0.76
15:05:58.120,-0.03,0.0,-0.01,-4.56,-0.34,0.91
15:05:58.127,-0.03,0.0,-0.0,-4.44,-0.44,1.02
15:05:58.134,-0.02,-0.01,0.0,-4.46,-0.25,1.16
15:05:58.142,-0.03,0.01,-0.0,-4.69,-0.38,0.89
15:05:58.149,-0.03,0.0,-0.0,-4.57,-0.27,1.32
15:05:58.156,-0.02,0.0,-0.01,-4.62,-0.61,1.08
15:05:58.163,-0.02,0.0,0.0,-4.7,-0.46,1.25
15:05:58.171,-0.02,-0.0,0.0,-4.53,-0.55,1.06
15:05:58.178,-0.02,0.0,0.0,-4.5,-0.52,1.23
15:05:58.185,-0.02,-0.0,-0.0,-4.64,-0.15,1.13
15:05:58.193,-0.02,-0.0,0.0,-4.45,-0.33,1.27
15:05:58.200,-0.02,-0.0,-0.01,-4.69,-0.56,1.35
15:05:58.207,-0.02,0.0,0.0,-4.64,-0.55,1.61
15:05:58.214,-0.02,-0.0,0.0,-4.6,-0.6,1.36
15:05:58.222,-0.02,0.01,-0.0,-4.65,-0.72,1.48
15:05:58.229,-0.02,0.01,-0.0,-4.59,-0.53,1.57
15:05:58.236,-0.0,0.0,-0.02,-4.77,-0.62,1.67
15:05:58.244,-0.01,0.01,-0.0,-4.53,-0.67,1.55
15:05:58.251,-0.03,-0.0,0.01,-4.55,-0.82,1.48
15:05:58.258,-0.01,0.01,0.0,-4.55,-0.63,1.54
15:05:58.265,-0.0,0.0,-0.0,-4.66,-0.58,1.47
15:05:58.273,-0.01,-0.01,0.0,-4.57,-0.6,1.51
15:05:58.280,-0.01,0.0,-0.0,-4.39,-0.49,1.59
15:05:58.287,-0.0,-0.0,0.0,-4.39,-0.57,1.42
15:05:58.295,-0.0,0.0,0.0,-4.63,-0.47,1.3
15:05:58.302,0.01,0.0,0.0,-4.61,-0.43,1.19
15:05:58.309,-0.01,-0.0,-0.01,-4.47,-0.43,1.11
15:05:58.316,0.02,-0.0,-0.01,-4.66,-0.19,1.13
15:05:58.324,-0.0,0.0,-0.01,-4.6,-0.13,0.87
15:05:58.331,-0.01,0.0,0.01,-4.56,-0.15,0.8
15:05:58.338,-0.0,0.02,0.01,-4.41,-0.1,0.71
15:05:58.346,-0.0,0.0,0.0,-4.66,-0.34,0.81
15:05:58.353,0.02,0.0,-0.0,-4.34,-0.28,0.84
15:05:58.360,-0.01,-0.0,0.0,-4.52,-0.39,0.65
15:05:58.368,-0.01,0.0,-0.0,-4.62,-0.31,0.71
15:05:58.375,-0.02,0.0,0.0,-4.68,-0.3,0.76
15:05:58.382,-0.02,-0.0,-0.0,-4.57,-0.37,0.95
15:05:58.389,-0.03,-0.0,-0.0,-4.42,-0.32,0.98
15:05:58.397,0.0,0.01,0.0,-4.66,-0.32,0.97
15:05:58.404,-0.01,0.01,0.01,-4.64,-0.37,0.96
15:05:58.411,-0.03,-0.01,0.0,-4.56,-0.29,0.86
15:05:58.418,0.0,0.0,-0.0,-4.61,-0.31,0.84
15:05:58.426,0.0,0.01,0.01,-4.69,-0.43,1.08
15:05:58.433,-0.01,-0.0,-0.02,-4.66,-0.31,0.94
15:05:58.440,-0.01,-0.0,0.0,-4.53,-0.28,0.88
15:05:58.448,-0.01,0.0,0.01,-4.47,-0.34,0.8
15:05:58.455,-0.02,-0.0,0.0,-4.54,-0.23,0.7
15:05:58.462,-0.01,0.0,-0.0,-4.58,-0.41,0.78
15:05:58.469,-0.01,0.0,-0.01,-4.53,-0.24,0.74
15:05:58.477,-0.0,0.0,-0.0,-4.58,-0.42,0.6
15:05:58.484,-0.01,-0.0,-0.0,-4.48,-0.24,0.79
15:05:58.491,-0.01,0.0,0.0,-4.63,-0.21,0.62
15:05:58.498,-0.0,-0.0,-0.02,-4.62,-0.43,0.8
15:05:58.506,-0.01,0.01,0.01,-4.56,-0.53,0.63
15:05:58.513,-0.01,0.01,-0.0,-4.44,-0.36,0.65
15:05:58.520,-0.01,0.01,0.01,-4.37,-0.34,0.56
15:05:58.528,-0.0,0.0,0.0,-4.44,-0.21,0.53
15:05:58.535,-0.0,0.01,0.0,-4.56,-1.96,0.29
15:05:58.542,-0.0,0.0,-0.0,-4.44,-0.12,0.47
15:05:58.549,-0.01,0.01,-0.0,-4.65,-0.15,0.36
15:05:58.557,-0.01,0.0,0.0,-4.6,-0.12,0.41
15:05:58.564,0.0,0.0,-0.0,-4.47,-0.09,0.48
15:05:58.571,-0.02,0.0,-0.0,-4.64,1.92,0.45
15:05:58.579,-0.01,0.0,0.0,-4.57,-0.1,0.39
15:05:58.586,-0.02,0.0,0.01,-4.42,-0.35,0.57
15:05:58.593,-0.02,0.0,0.01,-4.51,-0.37,0.54
15:05:58.601,-0.02,0.0,-0.0,-4.69,-0.1,0.46
15:05:58.608,-0.01,0.0,-0.0,-4.59,-0.21,0.53
15:05:58.615,-0.02,0.0,-0.02,-4.47,-0.38,0.7
15:05:58.623,-0.01,-0.0,0.01,-4.59,-0.37,0.84
15:05:58.630,-0.01,-0.0,0.01,-4.56,-0.32,0.71
15:05:58.637,-0.01,-0.0,0.01,-4.52,-0.44,0.58
15:05:58.645,-0.01,0.0,0.0,-4.66,-0.09,0.56
15:05:58.652,-0.01,0.0,-0.01,-4.46,-0.31,0.82
15:05:58.659,-0.01,0.0,-0.02,-4.55,-0.21,0.46
15:05:58.666,-0.01,0.0,0.01,-4.79,-0.34,0.57
15:05:58.674,-0.01,0.0,-0.0,-4.69,-0.21,0.66
15:05:58.681,-0.01,0.0,0.0,-4.53,-0.17,0.51
15:05:58.689,-0.0,0.0,0.0,-4.44,1.93,0.32
15:05:58.696,-0.01,0.01,-0.01,-4.54,-0.21,0.57
15:05:58.703,-0.01,0.02,-0.0,-4.73,-0.08,0.45
15:05:58.711,-0.01,0.0,0.0,-4.53,-0.12,0.23
15:05:58.718,-0.01,0.0,0.01,-4.37,-0.04,0.46
15:05:58.725,0.0,0.0,0.0,-4.63,-0.18,0.47
15:05:58.732,-0.01,0.0,-0.0,-4.41,1.92,0.32
15:05:58.740,-0.0,-0.0,0.0,-4.52,-0.05,0.2
15:05:58.747,-0.01,0.01,0.0,-4.42,1.85,0.09
15:05:58.754,-0.01,0.0,0.01,-4.4,-0.21,0.15
15:05:58.762,-0.01,0.01,0.01,-4.44,-0.08,0.28
15:05:58.769,-0.02,0.0,0.0,-4.47,-0.18,0.4
15:05:58.776,-0.02,-0.0,-0.0,-4.51,-0.15,0.33
15:05:58.783,-0.02,0.01,-0.0,-4.82,-0.2,0.4
15:05:58.791,0.0,0.0,-0.02,-4.47,-0.29,0.4
15:05:58.798,-0.03,0.0,-0.0,-4.79,-0.19,0.64
15:05:58.805,-0.02,0.01,-0.0,-4.53,-0.19,0.58
15:05:58.813,-0.03,-0.0,-0.01,-4.54,-0.42,0.67
15:05:58.820,-0.03,0.0,0.0,-4.53,-0.25,0.97
15:05:58.827,-0.02,-0.01,-0.0,-4.71,-0.38,0.94
15:05:58.834,-0.02,-0.01,-0.01,-4.43,-0.28,1.0
15:05:58.842,-0.02,0.0,-0.01,-4.69,-0.44,1.09
15:05:58.849,-0.02,0.0,-0.0,-4.44,-0.41,0.89
15:05:58.856,-0.0,0.01,0.01,-4.64,-0.32,0.98
15:05:58.864,-0.01,0.0,0.0,-4.47,-0.33,1.0
15:05:58.871,-0.01,-0.0,0.0,-4.51,-0.54,0.91
15:05:58.878,-0.02,-0.0,-0.0,-4.55,-0.47,0.94
15:05:58.885,-0.01,0.0,-0.01,-4.55,-0.53,1.09
15:05:58.893,-0.0,0.02,0.0,-4.56,-0.47,1.15
15:05:58.900,-0.02,0.0,0.01,-4.82,-0.45,1.02
15:05:58.907,-0.01,0.01,0.01,-4.62,-0.47,1.19
15:05:58.914,-0.02,0.01,0.0,-4.79,-0.52,1.22
15:05:58.922,-0.02,-0.0,-0.0,-4.56,-0.51,1.22
15:05:58.929,-0.03,-0.0,-0.0,-4.66,-0.58,1.36
15:05:58.936,-0.03,-0.01,-0.0,-4.74,-0.65,1.51
15:05:58.944,-0.03,0.0,-0.0,-4.5,-0.87,1.61
15:05:58.951,-0.04,0.0,-0.0,-4.69,-0.86,1.7
15:05:58.958,-0.02,0.01,-0.01,-4.63,-0.83,1.94
15:05:58.965,-0.02,0.0,0.0,-4.6,-0.68,1.73
15:05:58.973,-0.02,0.01,-0.01,-4.59,-0.7,1.9
15:05:58.980,-0.01,0.0,-0.0,-4.74,-0.67,2.07
15:05:58.987,-0.02,0.0,0.01,-4.82,-0.82,-0.0
15:05:58.995,0.0,0.0,-0.0,-4.61,-0.66,1.81
15:05:59.002,-0.01,-0.0,0.01,-4.62,-0.74,1.94
15:05:59.009,-0.01,-0.0,-0.0,-4.79,-0.77,1.84
15:05:59.016,-0.0,0.01,0.01,-4.66,-0.79,2.03
15:05:59.024,-0.01,0.01,-0.0,-4.63,-0.73,1.95
15:05:59.031,-0.01,0.0,0.0,-4.77,-0.85,1.88
15:05:59.038,-0.01,0.01,0.01,-4.74,-0.83,1.96
15:05:59.046,-0.01,0.0,-0.0,-4.77,-0.62,1.9
15:05:59.053,-0.01,-0.0,-0.0,-4.82,-0.68,1.9
15:05:59.060,-0.01,0.01,-0.02,-4.66,-0.98,1.96
15:05:59.068,-0.01,0.0,-0.0,-4.66,-0.6,1.85
15:05:59.075,-0.0,0.0,0.01,-4.59,-0.67,2.05
15:05:59.082,-0.01,0.01,-0.0,-4.58,-0.73,0.0
15:05:59.089,-0.01,0.01,-0.0,-4.7,-0.83,0.02
15:05:59.097,-0.01,0.0,-0.0,-4.6,-0.79,2.2
15:05:59.104,-0.0,0.01,-0.01,-4.71,-0.88,1.98
15:05:59.111,-0.01,0.0,-0.01,-4.59,-0.84,1.87
15:05:59.119,-0.0,0.0,-0.02,-4.71,-0.79,1.94
15:05:59.126,-0.01,0.0,0.0,-4.75,-0.97,0.0
15:05:59.133,0.0,-0.0,-0.0,-4.76,-0.73,1.98
15:05:59.140,-0.01,0.01,-0.02,-4.85,-0.66,3.86
15:05:59.148,-0.0,0.0,0.0,-4.69,-0.71,2.01
15:05:59.155,-0.0,-0.0,-0.02,-4.53,-0.82,1.74
15:05:59.162,-0.01,0.0,-0.0,-4.69,-0.87,1.98
15:05:59.170,-0.01,0.01,-0.0,-4.64,-0.7,1.9
15:05:59.177,-0.01,0.01,0.01,-4.45,-0.75,1.96
15:05:59.184,-0.01,0.01,-0.0,-4.64,-0.63,1.99
15:05:59.191,-0.01,0.01,0.0,-4.54,-0.73,1.97
15:05:59.199,0.0,0.0,0.01,-4.57,-0.79,1.67
15:05:59.206,0.0,0.0,-0.0,-4.71,-0.62,1.62
15:05:59.213,0.0,0.0,-0.0,-4.54,-0.78,1.74
15:05:59.221,-0.0,0.0,-0.0,-4.83,-0.63,1.86
15:05:59.228,-0.0,0.0,-0.0,-4.66,-0.56,1.7
15:05:59.235,-0.0,0.0,-0.0,-4.82,-0.57,1.74
15:05:59.242,-0.0,0.02,0.0,-4.58,-0.54,1.72
15:05:59.250,0.0,0.01,0.0,-4.67,-0.65,1.67
15:05:59.257,-0.01,0.01,0.0,-4.97,-0.56,1.73
15:05:59.264,-0.0,0.0,-0.0,-4.63,-0.49,1.61
15:05:59.272,-0.01,0.01,0.0,-4.72,-0.73,1.58
15:05:59.279,-0.01,0.0,-0.02,-4.66,-0.73,1.7
15:05:59.286,-0.0,-0.0,-0.0,-4.73,-0.63,1.58
15:05:59.293,0.0,0.0,-0.0,-4.68,-0.44,1.61
15:05:59.301,-0.01,0.0,0.01,-4.68,-0.66,1.65
15:05:59.308,-0.0,0.01,0.01,-4.69,-0.59,1.58
15:05:59.315,0.02,0.0,0.01,-4.5,-0.68,1.58
15:05:59.323,0.0,0.0,0.02,-4.42,-0.28,1.41
15:05:59.330,0.01,-0.0,0.01,-4.63,-0.7,1.39
15:05:59.337,0.01,-0.0,-0.0,-4.58,-0.47,1.3
15:05:59.344,0.01,0.0,0.01,-4.55,-0.63,1.01
15:05:59.352,0.0,0.01,-0.01,-4.82,-0.6,1.32
15:05:59.359,-0.01,-0.0,0.01,-4.47,-0.34,1.13
15:05:59.366,0.0,-0.0,0.0,-4.53,-0.44,1.14
15:05:59.374,0.0,0.01,0.0,-4.59,-0.61,1.17
15:05:59.381,0.01,0.0,0.01,-4.62,-0.6,1.22
15:05:59.388,-0.01,0.0,0.0,-4.6,-0.53,1.21
15:05:59.395,-0.01,0.0,0.01,-4.53,-0.36,1.21
15:05:59.403,-0.01,0.0,0.0,-4.73,-0.44,1.18
15:05:59.410,0.0,0.01,-0.0,-4.66,-0.68,1.09
15:05:59.417,-0.0,0.0,0.0,-4.53,-0.36,1.05
15:05:59.425,-0.0,0.0,0.01,-4.6,-0.47,1.28
15:05:59.432,-0.0,0.0,-0.0,-4.5,-0.49,1.16
15:05:59.439,0.01,0.0,-0.01,-4.57,-0.62,1.06
15:05:59.446,-0.01,0.0,0.0,-4.53,-0.32,1.14
15:05:59.454,0.0,0.0,-0.0,-4.47,-0.63,1.06
15:05:59.461,0.0,-0.0,-0.01,-4.79,-0.34,0.88
15:05:59.468,-0.0,-0.01,-0.0,-4.6,-0.57,1.01
15:05:59.476,-0.0,0.0,-0.0,-4.66,-0.41,1.09
15:05:59.483,-0.0,-0.0,0.0,-4.63,-0.31,1.09
15:05:59.490,-0.0,0.0,0.01,-4.56,-0.32,1.04
15:05:59.498,-0.01,-0.0,0.0,-4.46,-0.32,0.94
15:05:59.505,-0.01,0.0,0.01,-4.66,-0.22,0.82
15:05:59.512,0.0,0.01,0.0,-4.48,-0.24,0.88
15:05:59.519,-0.01,-0.01,0.01,-4.59,-0.34,0.93
15:05:59.527,0.0,0.0,0.0,-4.57,-0.47,0.82
15:05:59.534,0.0,0.0,0.0,-4.65,-0.31,0.83
15:05:59.541,-0.01,0.01,0.01,-4.63,-0.28,0.83
15:05:59.548,-0.0,0.0,-0.0,-4.47,-0.21,0.77
15:05:59.556,0.0,0.0,0.01,-4.45,1.93,0.67
15:05:59.563,0.0,-0.01,0.0,-4.52,-0.21,0.64
15:05:59.570,0.0,-0.0,-0.0,-4.76,-0.31,0.68
15:05:59.578,-0.0,-0.0,0.0,-4.6,-0.07,0.78
15:05:59.585,-0.01,0.01,0.01,-4.4,-0.21,0.63
15:05:59.592,-0.0,0.0,-0.0,-4.55,-0.21,0.83
15:05:59.600,-0.01,-0.0,-0.01,-4.52,-0.31,0.67
15:05:59.607,0.0,0.0,-0.0,-4.5,-0.36,0.63
15:05:59.614,-0.0,0.01,-0.0,-4.41,-0.23,0.74
15:05:59.622,-0.01,0.0,-0.02,-4.49,-0.35,0.77
15:05:59.629,0.01,0.01,-0.0,-4.6,-0.3,0.63
15:05:59.636,-0.0,0.0,0.0,-4.47,-0.23,0.7
15:05:59.644,-0.0,0.0,0.0,-4.43,-0.21,0.74
15:05:59.651,-0.0,0.0,0.01,-4.53,-0.12,0.71
15:05:59.658,-0.0,-0.0,-0.0,-4.53,-0.25,0.83
15:05:59.666,0.0,-0.01,-0.0,-4.58,-0.16,0.71
15:05:59.673,-0.0,0.0,-0.0,-4.55,-0.17,0.78
15:05:59.680,-0.01,0.0,-0.0,-4.62,-0.16,0.58
15:05:59.687,-0.0,-0.0,-0.0,-4.42,-0.31,0.61
15:05:59.695,-0.01,-0.0,0.01,-4.34,-0.24,0.72
15:05:59.702,-0.0,0.01,0.0,-4.6,-0.25,0.56
15:05:59.709,-0.0,0.0,-0.0,-4.6,-0.23,0.65
15:05:59.717,-0.01,0.01,0.0,-4.59,-0.37,0.58
15:05:59.724,-0.0,0.0,0.0,-4.44,-0.43,0.65
15:05:59.731,-0.0,0.0,-0.0,-4.39,-0.25,0.74
15:05:59.738,-0.0,-0.01,0.01,-4.47,-0.37,0.58
15:05:59.746,-0.0,0.0,-0.0,-4.56,-0.18,0.77
15:05:59.753,-0.0,0.0,-0.0,-4.44,-0.35,0.83
15:05:59.760,-0.01,0.01,0.01,-4.69,-0.18,0.66
15:05:59.767,-0.0,0.01,-0.0,-4.5,-0.33,0.68
15:05:59.775,0.0,0.01,-0.0,-4.47,-0.33,0.8
15:05:59.782,-0.01,0.02,-0.01,-4.47,-0.41,1.03
15:05:59.789,-0.01,0.0,0.0,-4.56,-0.49,1.0
15:05:59.797,-0.01,0.0,0.01,-4.73,-0.44,1.09
15:05:59.804,0.0,-0.0,0.0,-4.4,-0.31,0.88
15:05:59.811,0.01,0.01,-0.0,-4.44,-0.25,0.63
15:05:59.818,0.02,0.01,0.0,-4.6,-0.18,0.83
15:05:59.826,-0.0,-0.0,0.01,-4.59,-0.26,0.85
15:05:59.833,0.0,0.01,-0.0,-4.35,-0.34,0.9
15:05:59.840,0.01,0.0,0.01,-4.52,-0.21,0.82
15:05:59.847,-0.01,0.0,-0.01,-4.66,-0.28,0.94
15:05:59.855,0.01,0.0,-0.02,-4.63,-0.12,0.71
15:05:59.862,-0.01,0.01,-0.0,-4.55,-0.32,0.75
15:05:59.869,0.01,0.02,-0.01,-4.76,-0.54,0.61
15:05:59.877,0.0,0.0,-0.02,-4.67,-0.56,0.93
15:05:59.884,0.0,0.0,-0.01,-4.54,-0.46,0.71
15:05:59.891,0.0,0.01,-0.03,-4.77,-0.57,0.8
15:05:59.898,-0.0,0.01,-0.02,-4.67,-0.39,0.78
15:05:59.906,-0.0,0.02,-0.03,-4.5,-0.31,0.72
15:05:59.913,0.0,0.01,-0.03,-4.86,-0.42,0.69
15:05:59.920,0.0,0.01,-0.02,-4.54,-0.47,0.63
15:05:59.927,0.02,0.01,-0.02,-4.71,-0.6,0.88
15:05:59.935,0.0,0.01,-0.03,-4.69,-0.47,0.83
15:05:59.942,0.0,0.01,-0.02,-4.76,-0.41,0.74
15:05:59.949,-0.0,0.01,-0.02,-4.53,-0.28,0.71
15:05:59.957,0.01,0.01,-0.02,-4.75,-0.27,0.76
15:05:59.964,-0.0,0.02,-0.02,-4.5,-0.45,0.75
15:05:59.971,0.0,0.02,-0.01,-4.48,-0.36,0.83
15:05:59.978,0.01,0.01,-0.03,-4.49,-0.43,0.91
15:05:59.986,0.01,0.01,-0.03,-4.69,-0.24,0.71
15:05:59.993,0.01,0.02,-0.03,-4.47,-0.13,0.63
15:06:00.001,0.02,0.01,-0.03,-4.51,-0.11,0.53
15:06:00.008,0.0,0.02,-0.03,-4.53,-0.05,0.35
15:06:00.015,0.03,0.01,-0.03,-4.54,-0.26,0.29
15:06:00.022,0.03,0.01,-0.03,-4.56,0.09,-0.11
15:06:00.030,0.03,0.01,-0.04,-4.5,0.27,-0.2
15:06:00.037,0.03,0.01,-0.03,-4.63,0.22,-0.45
15:06:00.044,0.03,0.01,-0.03,-4.45,-0.0,-0.34
15:06:00.052,0.03,0.02,-0.04,-4.6,0.18,-0.5
15:06:00.059,0.03,0.02,-0.04,-4.48,0.22,-0.56
15:06:00.066,0.02,0.01,-0.03,-4.51,0.11,-0.75
15:06:00.074,0.01,0.02,-0.03,-4.37,0.22,-0.88
15:06:00.081,0.03,0.01,-0.04,-4.28,0.38,-0.86
15:06:00.088,0.02,0.02,-0.04,-4.14,0.34,-0.96
15:06:00.095,0.02,0.01,-0.04,-4.29,0.5,-1.25
15:06:00.103,0.0,0.01,-0.04,-4.5,0.37,-1.01
15:06:00.110,0.02,0.02,-0.04,-4.47,0.72,-1.29
15:06:00.117,0.03,0.02,-0.04,-4.14,0.59,-1.48
15:06:00.125,0.02,0.01,-0.05,-4.24,0.47,-1.49
15:06:00.132,0.02,0.02,-0.04,-4.21,0.69,-1.79
15:06:00.139,0.02,0.04,-0.05,-4.34,0.73,-0.03
15:06:00.147,0.03,0.01,-0.03,-4.26,0.73,-1.94
15:06:00.154,0.02,0.02,-0.04,-4.3,0.72,-2.07
15:06:00.161,0.01,0.02,-0.04,-4.15,0.74,-2.04
15:06:00.168,0.01,0.03,-0.04,-4.21,0.57,-2.1
15:06:00.176,0.01,0.02,-0.05,-4.28,0.78,-2.1
15:06:00.183,0.01,0.02,-0.04,-4.21,0.75,-2.2
15:06:00.190,0.01,0.02,-0.05,-4.18,1.07,-2.39
15:06:00.198,0.01,0.02,-0.05,-4.22,0.76,-2.59
15:06:00.205,0.01,0.01,-0.04,-4.26,0.89,-2.39
15:06:00.212,0.0,0.02,-0.05,-4.21,0.91,-2.55
15:06:00.219,0.01,0.01,-0.06,-4.05,0.65,-2.39
15:06:00.227,-0.0,0.02,-0.06,-4.13,0.79,-2.42
15:06:00.234,-0.0,0.02,-0.05,-4.09,0.59,-2.31
15:06:00.241,-0.01,0.02,-0.05,-4.07,0.79,-2.27
15:06:00.248,-0.01,0.01,-0.06,-4.22,0.79,-2.33
15:06:00.256,-0.01,0.02,-0.06,-4.16,0.65,-2.3
15:06:00.263,-0.01,0.01,-0.05,-4.31,0.54,-2.32
15:06:00.270,-0.01,0.04,-0.05,-4.24,0.68,-2.36
15:06:00.278,-0.0,0.02,-0.05,-4.24,0.55,-2.38
15:06:00.285,0.0,0.03,-0.05,-4.25,0.63,-2.42
15:06:00.292,-0.01,0.03,-0.04,-4.24,0.74,-2.53
15:06:00.299,-0.01,0.03,-0.06,-4.34,0.71,-2.43
15:06:00.307,-0.0,0.03,-0.06,-4.31,0.82,-2.3
15:06:00.314,-0.0,0.02,-0.05,-4.04,0.84,-2.43
15:06:00.321,0.0,0.03,-0.06,-4.09,0.95,-2.61
15:06:00.329,0.0,0.03,-0.05,-4.06,0.67,-2.68
15:06:00.336,-0.0,0.03,-0.06,-4.0,0.89,-2.61
15:06:00.343,0.0,0.03,-0.07,-4.29,0.82,-2.68
15:06:00.351,0.0,0.03,-0.05,-4.35,0.92,-2.75
15:06:00.358,-0.0,0.03,-0.06,-4.19,0.79,-2.76
15:06:00.365,0.0,0.03,-0.07,-4.13,0.83,-2.9
15:06:00.372,0.0,0.03,-0.07,-4.22,0.91,-2.95
15:06:00.380,0.0,0.03,-0.07,-4.08,0.88,-3.02
15:06:00.387,-0.0,0.03,-0.05,-4.06,0.85,-2.86
15:06:00.394,0.0,0.03,-0.08,-4.11,0.8,-2.91
15:06:00.402,0.0,0.03,-0.07,-4.12,0.91,-3.07
15:06:00.409,0.01,0.03,-0.07,-4.01,0.93,-3.31
15:06:00.416,0.02,0.03,-0.08,-4.21,1.08,-3.4
15:06:00.423,0.02,0.03,-0.08,-5.85,1.34,-3.76
15:06:00.431,0.0,0.03,-0.08,-3.85,1.34,-5.87
15:06:00.438,0.02,0.03,-0.09,-3.92,1.18,-4.11
15:06:00.445,0.01,0.03,-0.08,-1.97,1.4,-4.1
15:06:00.452,0.0,0.04,-0.1,-3.92,1.11,-4.28
15:06:00.460,0.01,0.04,-0.08,-4.0,1.13,-4.44
15:06:00.467,-0.0,0.05,-0.09,-4.18,0.97,-4.19
15:06:00.474,-0.0,0.05,-0.09,-4.2,1.12,-4.46
15:06:00.482,-0.01,0.03,-0.1,-4.04,1.17,-4.37
15:06:00.489,-0.0,0.04,-0.1,-4.26,1.37,-4.39
15:06:00.496,-0.01,0.04,-0.09,-3.98,1.14,-4.41
15:06:00.504,-0.01,0.04,-0.09,-3.98,1.4,-4.84
15:06:00.511,-0.01,0.04,-0.09,-3.86,1.4,-4.47
15:06:00.518,-0.01,0.05,-0.09,-5.81,1.27,-4.57
15:06:00.525,-0.01,0.04,-0.09,-3.86,1.34,-4.55
15:06:00.533,-0.02,0.04,-0.1,-4.02,1.03,-4.24
15:06:00.540,-0.02,0.04,-0.11,-3.86,0.98,-4.46
15:06:00.547,-0.02,0.05,-0.1,-3.99,0.86,-4.11
15:06:00.554,-0.06,0.05,-0.1,-5.82,0.64,-3.96
15:06:00.562,-0.04,0.04,-0.1,-3.95,0.51,-3.8
15:06:00.569,-0.05,0.04,-0.1,-4.03,0.31,-3.43
15:06:00.576,-0.06,0.05,-0.09,-4.08,0.15,-3.14
15:06:00.584,-0.07,0.05,-0.1,-4.18,-0.24,-2.75
15:06:00.591,-0.07,0.04,-0.09,-4.21,-1.93,-2.41
15:06:00.598,-0.09,0.05,-0.11,-4.27,-0.25,-2.15
15:06:00.606,-0.09,0.04,-0.09,-4.57,-0.24,-1.75
15:06:00.613,-0.1,0.04,-0.09,-4.44,-0.46,-1.08
15:06:00.620,-0.1,0.04,-0.08,-4.46,-0.57,-0.6
15:06:00.628,-0.1,0.05,-0.09,-4.63,-1.12,-0.33
15:06:00.635,-0.1,0.04,-0.09,-4.37,-0.99,0.26
15:06:00.642,-0.08,0.04,-0.09,-4.59,-1.22,0.8
15:06:00.650,-0.1,0.03,-0.11,-4.67,-1.28,1.25
15:06:00.657,-0.08,0.03,-0.1,-4.64,-1.56,1.54
15:06:00.664,-0.08,0.03,-0.09,-4.92,-1.35,3.88
15:06:00.672,-0.08,0.03,-0.11,-4.86,-1.82,2.13
15:06:00.679,-0.07,0.04,-0.1,-4.85,-0.02,2.35
15:06:00.686,-0.07,0.04,-0.1,-4.9,-3.9,2.72
15:06:00.693,-0.06,0.04,-0.1,-4.98,-2.35,2.9
15:06:00.701,-0.06,0.04,-0.09,-4.92,-2.24,2.92
15:06:00.708,-0.05,0.05,-0.1,-5.14,-2.11,3.26
15:06:00.715,-0.04,0.05,-0.09,-5.02,-2.28,3.46
15:06:00.723,-0.06,0.04,-0.09,-5.01,-2.0,3.23
15:06:00.730,-0.04,0.05,-0.08,-4.85,-2.05,3.17
15:06:00.737,-0.03,0.04,-0.08,-4.71,-2.01,3.18
15:06:00.744,-0.02,0.03,-0.09,-4.56,-1.95,3.07
15:06:00.752,-0.03,0.03,-0.09,-4.76,-1.82,3.03
15:06:00.759,-0.01,0.04,-0.08,-4.74,-1.79,2.99
15:06:00.766,-0.02,0.04,-0.09,-4.79,-1.92,2.88
15:06:00.774,-0.01,0.03,-0.08,-4.98,-1.76,3.12
15:06:00.781,-0.0,0.04,-0.07,-4.74,-1.74,2.45
15:06:00.788,0.0,0.04,-0.07,-4.76,-1.82,2.32
15:06:00.795,0.01,0.05,-0.07,-4.68,-1.72,2.27
15:06:00.803,0.0,0.05,-0.06,-4.63,-1.53,2.13
15:06:00.810,-0.01,0.05,-0.07,-4.5,-1.27,1.74
15:06:00.817,0.01,0.03,-0.07,-4.63,-1.14,1.61
15:06:00.825,0.01,0.03,-0.1,-4.45,-1.15,1.45
15:06:00.832,-0.0,0.05,-0.08,-4.47,-1.02,1.45
15:06:00.839,-0.01,0.05,-0.06,-4.24,-1.0,1.4
15:06:00.846,-0.03,0.05,-0.06,-4.12,-1.08,1.71
15:06:00.854,-0.01,0.03,-0.07,-4.03,-1.19,1.83
15:06:00.861,-0.03,0.04,-0.08,-5.85,-1.52,1.86
15:06:00.868,-0.04,0.04,-0.07,-3.95,-1.44,1.87
15:06:00.876,-0.04,0.05,-0.09,-4.18,-1.62,2.0
15:06:00.883,-0.03,0.05,-0.09,-4.1,-1.43,2.21
15:06:00.890,-0.03,0.02,-0.09,-4.07,-1.66,2.54
15:06:00.897,-0.02,0.04,-0.08,-4.49,-1.55,2.5
15:06:00.905,-0.02,0.03,-0.07,-4.15,-1.7,2.62
15:06:00.912,-0.02,0.04,-0.07,-4.27,-1.79,2.35
15:06:00.919,-0.02,0.03,-0.08,-4.12,-1.65,2.61
15:06:00.927,-0.02,0.06,-0.06,-4.0,-1.89,2.7
15:06:00.934,-0.01,0.05,-0.1,-3.82,-2.04,2.99
15:06:00.941,-0.02,0.02,-0.14,-4.52,-2.47,3.11
15:06:00.948,-0.04,0.03,-0.16,-4.97,-2.34,3.19
15:06:00.956,-0.04,0.02,-0.1,-5.02,-2.37,3.51
15:06:00.963,-0.05,0.01,-0.09,-5.11,-2.38,3.52
15:06:00.970,-0.03,0.03,-0.12,-4.68,-2.39,3.66
15:06:00.978,-0.02,0.04,-0.13,-4.52,-2.76,3.96
15:06:00.985,-0.02,0.03,-0.13,-4.53,-2.82,3.96
15:06:00.992,-0.02,0.01,-0.12,-4.62,-2.57,3.77
15:06:00.999,-0.02,0.02,-0.11,-4.79,-2.44,3.73
15:06:01.007,-0.01,0.01,-0.12,-4.81,-2.29,3.83
15:06:01.014,0.0,0.03,-0.12,-5.26,-2.61,3.74
15:06:01.021,0.01,0.02,-0.1,-5.3,-2.32,3.84
15:06:01.029,0.02,0.03,-0.09,-4.97,-2.48,3.52
15:06:01.036,0.01,0.02,-0.09,-5.14,-2.27,3.14
15:06:01.043,0.02,0.03,-0.12,-5.24,-2.39,3.24
15:06:01.050,0.01,0.03,-0.14,-5.28,-2.6,3.09
15:06:01.058,0.01,0.04,-0.11,-5.48,-2.57,3.27
15:06:01.065,-0.01,0.04,-0.09,-5.19,-2.55,3.16
15:06:01.072,-0.01,0.03,-0.1,-5.44,-2.49,3.08
15:06:01.080,-0.01,0.03,-0.1,-5.44,-2.39,3.09
15:06:01.087,-0.02,0.05,-0.11,-5.55,-2.08,3.22
15:06:01.094,-0.02,0.04,-0.1,-5.36,-2.19,3.02
15:06:01.102,-0.02,0.03,-0.1,-5.18,-1.85,3.09
15:06:01.109,-0.01,0.03,-0.12,-5.31,-2.12,3.3
15:06:01.116,-0.02,0.02,-0.12,-5.67,-1.82,3.33
15:06:01.124,-0.01,0.03,-0.12,-5.34,-3.92,3.5
15:06:01.131,-0.0,0.03,-0.11,-5.54,-2.01,3.42
15:06:01.138,-0.01,0.03,-0.09,-5.62,-2.08,3.51
15:06:01.145,-0.0,0.03,-0.1,-5.4,-2.13,3.66
15:06:01.153,0.02,0.03,-0.1,-5.45,-3.89,3.26
15:06:01.160,0.03,0.04,-0.09,-5.17,-1.82,3.09
15:06:01.167,0.02,0.04,-0.1,-5.3,-1.73,2.65
15:06:01.175,0.07,0.05,-0.1,-5.03,-1.52,2.5
15:06:01.182,0.07,0.04,-0.1,-5.31,-1.53,1.65
15:06:01.189,0.07,0.05,-0.09,-4.92,-1.56,1.42
15:06:01.196,0.08,0.07,-0.09,-4.95,-1.24,0.89
15:06:01.204,0.08,0.06,-0.08,-4.91,-1.08,0.38
15:06:01.211,0.11,0.05,-0.09,-4.67,-0.76,-0.1
15:06:01.218,0.08,0.05,-0.09,-4.53,-0.66,-0.74
15:06:01.225,0.08,0.06,-0.08,-4.52,-0.28,-1.29
15:06:01.233,0.08,0.06,-0.11,-4.75,-0.18,-1.83
15:06:01.240,0.06,0.05,-0.1,-4.78,-0.06,-2.11
15:06:01.247,0.04,0.06,-0.08,-4.69,1.93,-2.17
15:06:01.255,0.02,0.04,-0.07,-4.43,-0.05,-2.33
15:06:01.262,0.03,0.04,-0.09,-4.33,-0.1,-2.33
15:06:01.270,0.02,0.03,-0.11,-4.38,0.04,-2.42
15:06:01.277,0.02,0.03,-0.13,-4.54,-1.94,-2.54
15:06:01.284,0.03,0.02,-0.12,-4.58,-0.26,-2.68
15:06:01.291,0.02,0.02,-0.14,-4.53,-0.06,-2.65
15:06:01.299,0.0,0.02,-0.12,-4.49,-0.44,-2.33
15:06:01.306,0.0,0.04,-0.12,-4.17,-0.6,-2.08
15:06:01.313,-0.0,0.05,-0.13,-4.34,-0.54,-2.26
15:06:01.321,-0.01,0.05,-0.11,-4.53,-0.44,-2.24
15:06:01.328,-0.01,0.05,-0.11,-4.47,-0.64,-2.43
15:06:01.335,-0.02,0.05,-0.1,-4.37,-0.35,-0.04
15:06:01.342,-0.04,0.05,-0.1,-4.42,-0.7,-1.98
15:06:01.350,-0.04,0.05,-0.11,-4.55,-0.53,-1.32
15:06:01.357,-0.05,0.07,-0.08,-4.56,-0.71,-0.89
15:06:01.364,-0.07,0.08,-0.06,-4.37,-0.8,-0.57
15:06:01.372,-0.07,0.08,-0.06,-4.59,-1.27,-0.1
15:06:01.379,-0.08,0.05,-0.09,-4.57,-1.53,0.23
15:06:01.386,-0.06,0.06,-0.08,-4.75,-1.66,0.72
15:06:01.393,-0.08,0.05,-0.09,-4.7,-2.03,1.18
15:06:01.401,-0.07,0.06,-0.11,-5.14,-0.05,1.51
15:06:01.408,-0.07,0.05,-0.1,-4.98,-2.31,2.17
15:06:01.415,-0.04,0.06,-0.08,-4.76,-2.53,2.42
15:06:01.423,-0.03,0.07,-0.1,-4.55,-2.5,2.48
15:06:01.430,-0.01,0.04,-0.14,-4.79,-2.5,2.48
15:06:01.437,0.01,0.02,-0.14,-4.81,-2.32,2.15
15:06:01.444,0.02,0.02,-0.14,-4.95,-2.31,2.09
15:06:01.452,0.01,0.02,-0.12,-4.83,-2.07,2.11
15:06:01.459,0.01,0.04,-0.13,-4.68,-2.08,1.87
15:06:01.466,-0.01,0.04,-0.11,-4.52,-2.37,1.84
15:06:01.474,-0.0,0.04,-0.1,-4.52,-2.45,2.09
15:06:01.481,-0.01,0.04,-0.11,-4.72,-2.26,2.11
15:06:01.488,-0.03,0.03,-0.08,-4.77,-2.55,2.34
15:06:01.495,-0.04,0.05,-0.07,-4.8,-2.34,2.29
15:06:01.503,-0.03,0.03,-0.06,-4.77,-2.46,2.51
15:06:01.510,-0.04,0.03,-0.1,-4.95,-2.37,2.75
15:06:01.517,-0.04,0.03,-0.07,-4.81,-2.6,3.05
15:06:01.525,-0.04,0.05,-0.05,-4.69,-2.76,3.38
15:06:01.532,-0.03,0.05,-0.06,-4.69,-2.56,3.36
15:06:01.539,-0.02,0.06,-0.07,-4.66,-2.59,3.43
15:06:01.546,0.01,0.06,-0.07,-4.57,-2.75,3.22
15:06:01.554,0.03,0.05,-0.05,-4.77,-2.62,2.93
15:06:01.561,0.04,0.06,-0.03,-4.44,-2.39,2.8
15:06:01.568,0.04,0.07,-0.02,-4.34,-2.37,2.58
15:06:01.575,0.05,0.07,-0.06,-4.06,-2.26,2.34
15:06:01.583,0.06,0.06,-0.07,-4.11,-2.14,1.87
15:06:01.590,0.06,0.07,-0.07,-3.73,-1.92,1.67
15:06:01.597,0.05,0.05,-0.08,-4.15,-1.79,1.12
15:06:01.605,0.02,0.03,-0.08,-4.23,-1.66,1.15
15:06:01.612,-0.0,0.03,-0.09,-4.44,-1.62,1.2
15:06:01.620,0.0,0.01,-0.1,-4.48,-2.02,1.36
15:06:01.627,-0.01,0.02,-0.11,-4.78,-1.96,1.58
15:06:01.634,-0.03,0.01,-0.1,-4.71,-2.18,1.65
15:06:01.641,-0.01,-0.0,-0.12,-4.98,-2.18,1.72
15:06:01.649,-0.04,0.02,-0.11,-5.27,-2.31,1.97
15:06:01.656,-0.03,0.02,-0.11,-5.11,-2.58,2.77
15:06:01.663,-0.05,0.01,-0.09,-5.18,-2.6,3.01
15:06:01.671,-0.06,-0.02,-0.1,-5.4,-3.01,3.58
15:06:01.678,-0.07,0.0,-0.08,-5.5,-3.41,4.05
15:06:01.685,-0.07,0.0,-0.07,-5.34,-3.59,4.67
15:06:01.692,-0.07,0.02,-0.08,-5.15,-3.74,5.01
15:06:01.700,-0.06,0.02,-0.05,-5.08,-3.76,5.47
15:06:01.707,-0.04,0.05,-0.03,-5.05,-3.96,5.65
15:06:01.714,-0.05,0.03,-0.02,-5.01,-4.02,5.77
15:06:01.722,-0.04,0.04,-0.02,-4.67,-3.63,3.95
15:06:01.729,-0.03,0.05,-0.02,-4.76,-3.46,6.06
15:06:01.736,-0.01,0.04,-0.01,-4.64,-3.47,6.06
15:06:01.743,-0.0,0.04,-0.0,-4.79,-3.48,5.94
15:06:01.751,0.01,0.04,-0.02,-4.48,-3.29,5.84
15:06:01.758,0.02,0.02,-0.02,-4.8,-3.29,5.22
15:06:01.765,0.06,0.03,-0.03,-4.82,-3.12,4.84
15:06:01.773,0.08,0.01,-0.06,-4.56,-3.08,4.43
15:06:01.780,0.06,0.0,-0.06,-4.73,-2.57,3.99
15:06:01.787,0.09,0.0,-0.08,-4.82,-2.37,3.46
15:06:01.794,0.09,-0.02,-0.08,-4.87,-3.92,2.55
15:06:01.802,0.1,-0.0,-0.11,-5.12,-1.56,2.06
15:06:01.809,0.09,-0.01,-0.11,-5.5,-1.31,1.62
15:06:01.816,0.07,-0.01,-0.07,-5.89,-1.02,0.9
15:06:01.824,0.08,-0.01,-0.08,-5.96,-1.08,0.57
15:06:01.831,0.06,-0.02,-0.08,-6.02,-0.89,0.26
15:06:01.838,0.06,-0.0,-0.05,-6.21,-0.8,-0.06
15:06:01.845,0.06,0.01,-0.06,-5.79,-0.84,-0.33
15:06:01.853,0.05,0.01,-0.05,-5.56,-0.53,-0.6
15:06:01.860,0.05,0.01,-0.03,-5.34,-0.51,-1.05
15:06:01.867,0.05,0.03,-0.05,-5.27,-0.25,-1.32
15:06:01.875,0.08,0.03,-0.07,-5.27,-0.15,-1.53
15:06:01.882,0.07,0.02,-0.05,-4.97,0.05,-1.74
15:06:01.889,0.05,0.03,-0.04,-4.65,-0.16,-1.94
15:06:01.896,0.05,0.04,-0.04,-4.34,-0.08,-1.95
15:06:01.904,0.05,0.06,-0.04,-4.14,0.03,-2.21
15:06:01.911,0.03,0.06,-0.06,-4.31,-0.05,-2.38
15:06:01.918,0.04,0.05,-0.06,-4.5,-0.08,-2.29
15:06:01.926,0.04,0.08,-0.03,-4.47,-0.32,-2.32
15:06:01.933,0.03,0.08,-0.03,-5.02,-0.56,-3.81
15:06:01.940,-0.01,0.04,-0.05,-5.6,-0.24,-2.11
15:06:01.947,0.02,0.06,-0.04,-5.93,-0.37,-2.01
15:06:01.955,0.0,0.05,-0.04,-6.3,-0.63,-2.09
15:06:01.962,0.02,0.08,-0.05,-6.74,-0.63,-2.09
15:06:01.969,0.01,0.03,-0.04,-6.41,-0.86,-2.15
15:06:01.977,0.03,0.05,-0.06,-6.42,-0.6,-2.18
15:06:01.984,0.01,0.01,-0.09,-7.76,-0.73,-1.85
15:06:01.991,0.01,-0.0,-0.11,-5.29,-0.82,-1.44
15:06:01.998,-0.03,-0.03,-0.16,-4.79,-1.01,-1.04
15:06:02.006,0.0,-0.01,-0.16,-4.66,-1.39,-0.62
15:06:02.013,-0.02,-0.02,-0.14,-4.37,-1.6,-0.55
15:06:02.020,-0.01,-0.02,-0.13,-4.06,-1.6,-0.49
15:06:02.028,-0.01,0.01,-0.11,-3.84,-1.9,-0.1
15:06:02.035,-0.01,0.05,-0.1,-3.65,-2.18,0.14
15:06:02.042,-0.0,0.04,-0.05,-3.6,-2.5,0.37
15:06:02.049,0.02,0.05,-0.03,-3.24,-2.35,0.47
15:06:02.057,-0.01,0.03,-0.02,-2.81,-2.44,0.96
15:06:02.064,-0.03,0.08,-0.01,-1.73,-2.44,1.12
15:06:02.071,-0.01,0.09,-0.03,-1.46,-2.2,1.1
15:06:02.078,-0.0,0.08,-0.04,-1.72,-2.15,1.05
15:06:02.086,0.0,0.05,-0.04,-2.18,-2.12,0.92
15:06:02.093,-0.0,0.07,-0.03,-2.73,-2.2,0.83
15:06:02.100,-0.01,0.05,-0.05,-2.66,-2.44,1.02
15:06:02.108,0.0,0.05,-0.08,-2.89,-2.37,1.05
15:06:02.115,-0.0,0.05,-0.1,-2.63,-2.48,0.98
15:06:02.122,0.01,0.04,-0.12,-2.53,-2.28,1.12
15:06:02.130,0.0,0.02,-0.16,-2.82,-2.41,1.12
15:06:02.137,0.0,0.03,-0.16,-3.17,-2.03,1.26
15:06:02.144,-0.01,0.04,-0.18,-3.86,-2.24,1.42
15:06:02.151,-0.04,0.02,-0.16,-4.6,-2.57,1.89
15:06:02.159,-0.03,0.04,-0.13,-4.41,-2.71,2.35
15:06:02.166,-0.06,0.05,-0.08,-4.01,-2.95,2.9
15:06:02.173,-0.07,0.06,-0.08,-4.05,-2.57,3.22
15:06:02.181,-0.1,0.05,-0.11,-3.98,-2.8,3.67
15:06:02.188,-0.06,0.06,-0.1,-4.37,-2.69,3.96
15:06:02.195,-0.07,0.03,-0.1,-4.38,-2.95,4.19
15:06:02.203,-0.04,0.01,-0.11,-4.97,-2.75,4.89
15:06:02.210,-0.05,0.04,-0.07,-4.79,-2.76,4.78
15:06:02.217,-0.01,0.03,-0.07,-4.92,-2.44,4.95
15:06:02.224,-0.01,0.04,-0.09,-5.13,-2.34,4.62
15:06:02.232,0.03,0.04,-0.07,-5.15,-1.97,4.27
15:06:02.239,0.06,0.05,-0.05,-4.9,-1.86,3.77
15:06:02.246,0.06,0.03,-0.06,-4.94,-1.6,3.32
15:06:02.254,0.06,0.04,-0.07,-5.09,-1.13,2.91
15:06:02.261,0.07,0.05,-0.04,-4.56,-0.76,2.32
15:06:02.268,0.08,0.06,0.0,-3.97,-0.51,2.0
15:06:02.275,0.08,0.07,0.01,-3.8,-0.39,1.23
15:06:02.283,0.08,0.05,-0.03,-3.37,-0.26,0.61
15:06:02.290,0.07,0.06,-0.03,-3.46,0.08,0.22
15:06:02.297,0.06,0.06,-0.05,-3.85,0.14,-0.14
15:06:02.305,0.04,0.06,-0.04,-3.85,0.09,1.91
15:06:02.312,0.02,0.04,-0.05,-3.79,0.1,-0.14
15:06:02.319,0.02,0.03,-0.05,-3.73,-0.09,0.19
15:06:02.326,0.02,0.05,-0.06,-3.7,0.4,0.11
15:06:02.334,-0.01,0.04,-0.06,-3.64,0.25,0.21
15:06:02.341,0.0,0.02,-0.13,-3.77,0.17,0.39
15:06:02.348,-0.02,-0.04,-0.19,-5.37,-0.45,0.51
15:06:02.356,-0.0,-0.06,-0.19,-6.27,-0.68,1.17
15:06:02.363,-0.02,-0.06,-0.16,-7.24,-0.83,1.55
15:06:02.370,-0.02,-0.06,-0.16,-7.6,-1.08,2.02
15:06:02.377,-0.04,-0.06,-0.15,-5.92,-1.37,2.55
15:06:02.385,-0.02,-0.01,-0.09,-7.58,-1.84,3.04
15:06:02.392,-0.04,-0.01,-0.03,-7.15,-2.04,3.43
15:06:02.399,-0.03,0.01,-0.04,-6.54,-2.32,3.8
15:06:02.406,-0.04,0.04,0.01,-5.6,-2.6,4.42
15:06:02.414,-0.01,0.08,0.03,-4.82,-3.1,4.96
15:06:02.421,-0.01,0.07,0.06,-4.53,-3.02,4.74
15:06:02.428,-0.0,0.09,0.07,-4.06,-3.12,4.62
15:06:02.436,0.02,0.08,0.04,-4.1,-3.05,4.64
15:06:02.443,0.04,0.08,0.02,-4.38,-2.74,4.51
15:06:02.450,0.05,0.06,-0.0,-4.52,-2.65,4.43
15:06:02.457,0.06,0.03,-0.01,-4.48,-2.3,3.77
15:06:02.465,0.05,0.02,-0.01,-4.58,-1.79,3.06
15:06:02.472,0.08,0.02,-0.03,-4.46,-1.44,2.48
15:06:02.479,0.08,0.0,-0.05,-4.41,-0.79,2.06
15:06:02.487,0.09,-0.01,-0.08,-4.43,-0.92,1.33
15:06:02.494,0.08,-0.01,-0.06,-4.49,-0.64,1.31
15:06:02.501,0.06,-0.02,-0.07,-4.56,-0.69,0.74
15:06:02.509,0.07,-0.02,-0.06,-4.4,-0.33,0.4
15:06:02.516,0.07,-0.0,-0.04,-3.96,-0.08,0.06
15:06:02.523,0.07,-0.02,-0.06,-3.8,0.2,-0.57
15:06:02.531,0.12,0.01,-0.05,-3.91,0.76,-1.42
15:06:02.538,0.11,-0.01,-0.05,-3.5,1.37,-2.15
15:06:02.545,0.08,-0.01,-0.08,-3.28,1.55,-2.79
15:06:02.553,0.11,0.0,-0.09,-3.07,2.27,-3.49
15:06:02.560,0.12,0.0,-0.07,-3.02,2.64,-4.39
15:06:02.567,0.1,-0.01,-0.09,-3.36,2.89,-5.17
15:06:02.574,0.08,-0.01,-0.09,-5.79,3.15,-5.38
15:06:02.582,0.1,-0.02,-0.05,-4.4,3.06,-5.58
15:06:02.589,0.06,-0.02,-0.08,-4.83,2.92,-5.91
15:06:02.596,0.11,-0.03,-0.08,-4.83,2.96,-6.06
15:06:02.604,0.07,-0.01,-0.07,-4.89,2.47,-6.33
15:06:02.611,0.08,0.01,-0.06,-4.89,2.63,-6.84
15:06:02.619,0.05,-0.02,-0.1,-4.84,2.59,-6.9
15:06:02.626,0.05,0.07,-0.05,-4.71,2.44,-6.76
15:06:02.633,0.06,0.08,-0.02,-4.66,2.18,-6.55
15:06:02.640,0.02,0.09,0.02,-4.47,1.72,-6.13
15:06:02.648,0.02,0.11,0.05,-4.1,1.59,-5.57
15:06:02.655,-0.01,0.11,0.03,-3.15,1.44,-5.39
15:06:02.662,-0.06,0.09,-0.03,-2.84,0.89,-4.75
15:06:02.670,-0.06,0.08,-0.07,-2.75,0.63,-3.98
15:06:02.677,-0.1,0.1,-0.06,-2.53,-0.06,-3.19
15:06:02.684,-0.1,0.05,-0.04,-2.69,-0.11,-2.33
15:06:02.692,-0.09,0.05,-0.07,-2.95,-0.31,-1.85
15:06:02.699,-0.04,0.02,-0.11,-2.05,-0.59,-1.28
15:06:02.706,-0.04,0.02,-0.11,-4.5,-1.02,-0.54
15:06:02.713,-0.02,0.01,-0.08,-5.15,-1.36,-0.27
15:06:02.721,-0.02,0.0,-0.1,-5.24,-1.92,-0.22
15:06:02.728,-0.01,-0.01,-0.13,-6.2,-2.41,0.29
15:06:02.735,-0.0,-0.03,-0.13,-7.01,-2.85,0.62
15:06:02.743,0.0,-0.03,-0.14,-7.53,-3.27,0.99
15:06:02.750,-0.03,-0.02,-0.08,-7.59,-3.75,1.63
15:06:02.757,-0.05,0.0,-0.06,-6.85,-5.86,1.87
15:06:02.765,-0.02,0.03,-0.07,-6.02,-3.8,2.17
15:06:02.772,0.0,0.04,-0.05,-5.16,-5.83,1.69
15:06:02.779,0.03,0.07,-0.06,-4.89,-3.48,1.33
15:06:02.786,-0.01,0.07,-0.07,-5.2,-3.27,1.35
15:06:02.794,0.01,0.05,-0.07,-5.07,-3.1,1.55
15:06:02.801,-0.01,0.08,-0.03,-4.63,-3.5,2.05
15:06:02.808,-0.02,0.05,-0.01,-4.26,-3.09,2.19
15:06:02.815,-0.02,0.05,-0.01,-2.01,-3.04,3.84
15:06:02.823,-0.02,0.06,-0.04,-4.31,-2.93,1.96
15:06:02.830,-0.05,0.03,-0.07,-4.67,-2.71,2.17
15:06:02.837,-0.08,-0.01,-0.1,-4.94,-2.73,2.19
15:06:02.845,-0.08,-0.06,-0.12,-5.45,-2.55,2.71
15:06:02.852,-0.06,-0.03,-0.1,-5.63,-2.74,2.94
15:06:02.859,-0.05,-0.01,-0.08,-5.84,-2.66,3.13
15:06:02.867,-0.06,-0.01,-0.07,-6.48,-2.34,3.51
15:06:02.874,-0.04,0.0,-0.05,-6.59,-3.12,2.06
15:06:02.881,-0.04,0.06,0.02,-6.32,-2.93,4.13
15:06:02.888,-0.01,0.07,0.03,-5.89,-3.05,4.22
15:06:02.896,-0.01,0.08,0.03,-5.76,-2.83,3.77
15:06:02.903,0.02,0.09,0.03,-5.78,-2.52,3.59
15:06:02.910,0.04,0.11,0.02,-5.58,-2.42,3.51
15:06:02.918,0.03,0.11,0.04,-5.19,-2.06,3.13
15:06:02.925,0.07,0.06,-0.01,-5.05,-1.7,2.45
15:06:02.932,0.08,0.09,-0.02,-4.86,-1.44,3.83
15:06:02.939,0.07,0.04,-0.04,-4.28,-0.99,1.37
15:06:02.947,0.03,0.0,-0.08,-4.4,-1.3,1.18
15:06:02.954,0.05,-0.06,-0.1,-4.09,-0.8,1.05
15:06:02.961,0.01,-0.1,-0.11,-5.82,-0.85,1.02
15:06:02.969,0.02,-0.13,-0.16,-3.48,-0.85,1.34
15:06:02.976,-0.0,-0.16,-0.12,-3.05,-1.07,1.51
15:06:02.983,0.01,-0.15,-0.14,-3.07,-1.01,1.49
15:06:02.990,0.0,-0.13,-0.16,-3.9,-1.32,1.61
15:06:02.998,0.05,-0.11,-0.18,-5.32,-1.5,1.68
15:06:03.005,0.01,-0.09,-0.13,-6.78,-2.26,1.97
15:06:03.012,0.05,-0.04,-0.03,-7.56,-2.57,2.15
15:06:03.019,0.0,0.04,0.04,-7.95,-3.02,2.85
15:06:03.027,-0.03,0.05,0.04,-8.25,-3.65,2.55
15:06:03.034,0.02,0.04,0.0,-8.02,-3.42,2.74
15:06:03.041,0.01,0.07,0.01,-7.93,-3.84,2.68
15:06:03.049,0.0,0.1,0.06,-7.61,-3.37,3.23
15:06:03.056,-0.07,0.08,0.04,-7.37,-3.1,3.42
15:06:03.063,-0.06,0.09,0.04,-7.11,-3.16,4.03
15:06:03.070,-0.07,0.09,0.03,-6.56,-3.26,4.66
15:06:03.078,-0.05,0.09,0.02,-6.16,-3.57,5.13
15:06:03.085,-0.03,0.07,0.02,-5.52,-3.92,5.67
15:06:03.092,0.0,0.06,0.04,-5.22,-4.08,5.62
15:06:03.100,0.0,0.05,0.01,-5.11,-4.1,5.83
15:06:03.107,0.02,0.03,-0.01,-5.15,-4.06,5.32
15:06:03.114,0.05,0.01,-0.03,-5.35,-4.08,5.53
15:06:03.122,0.04,-0.03,-0.03,-5.79,-3.67,5.09
15:06:03.129,0.03,-0.02,-0.04,-5.48,-3.63,5.15
15:06:03.136,0.03,-0.04,-0.03,-5.47,-3.22,4.74
15:06:03.143,0.02,-0.05,-0.06,-5.26,-2.54,4.33
15:06:03.151,0.02,-0.05,-0.03,-5.02,-2.31,4.29
15:06:03.158,-0.0,-0.07,-0.07,-5.05,-2.48,4.46
15:06:03.165,-0.0,-0.06,-0.06,-5.29,-2.34,4.42
15:06:03.173,0.01,-0.03,-0.01,-4.92,-2.33,4.39
15:06:03.180,0.05,-0.03,0.0,-4.82,-2.24,4.19
15:06:03.187,0.02,0.01,0.01,-4.79,-1.88,3.8
15:06:03.194,0.07,0.05,0.03,-4.6,-1.69,3.48
15:06:03.202,0.05,0.08,0.08,-4.18,-1.79,2.96
15:06:03.209,0.1,0.11,0.07,-3.74,-1.16,2.38
15:06:03.216,0.1,0.11,0.04,-4.38,-0.95,3.82
15:06:03.224,0.1,0.08,0.0,-5.02,-0.52,0.99
15:06:03.231,0.13,0.04,-0.01,-5.6,-1.93,0.08
15:06:03.238,0.11,0.01,-0.03,-6.1,0.32,-0.36
15:06:03.245,0.09,-0.0,-0.01,-5.66,0.33,-0.39
15:06:03.253,0.06,0.01,0.01,-5.33,0.63,-0.87
15:06:03.260,0.02,0.01,-0.01,-5.12,1.06,-1.1
15:06:03.267,0.02,0.0,-0.04,-5.21,1.18,-1.24
15:06:03.275,-0.01,-0.02,-0.02,-5.02,1.01,-1.09
15:06:03.282,0.02,0.02,-0.0,-4.75,1.14,-1.19
15:06:03.289,0.02,-0.02,0.01,-3.76,1.15,-1.25
15:06:03.296,0.06,-0.01,0.0,-2.9,1.27,-1.78
15:06:03.304,0.08,-0.01,-0.05,-2.21,1.83,-2.32
15:06:03.311,0.12,0.01,-0.04,-2.17,2.1,-3.33
15:06:03.318,0.14,0.02,-0.02,-2.26,2.54,-3.96
15:06:03.325,0.14,0.03,-0.03,-2.47,2.98,-5.07
15:06:03.333,0.17,0.03,-0.01,-3.02,3.27,-5.84
15:06:03.340,0.15,0.03,-0.01,-3.32,3.59,-6.81
15:06:03.347,0.14,0.02,-0.01,-3.17,3.51,-7.5
15:06:03.355,0.12,0.01,-0.01,-3.45,4.08,-8.13
15:06:03.362,0.11,0.02,-0.02,-3.78,4.15,-9.03
15:06:03.369,0.08,-0.03,-0.09,-4.53,4.54,-9.27
15:06:03.377,0.05,-0.03,-0.1,-5.16,4.39,-9.2
15:06:03.384,0.04,-0.02,-0.09,-4.66,4.34,-9.1
15:06:03.391,0.01,-0.03,-0.03,-3.66,4.14,-8.92
15:06:03.398,-0.01,-0.01,-0.01,-2.02,4.22,-8.68
15:06:03.406,-0.02,0.01,-0.05,-0.99,3.76,-8.55
15:06:03.413,0.01,0.02,-0.12,-1.73,3.43,-8.21
15:06:03.420,-0.03,0.03,-0.12,-3.14,3.27,-7.94
15:06:03.428,-0.06,0.03,-0.05,-3.56,2.49,-6.67
15:06:03.435,-0.06,0.09,0.04,-3.57,0.05,-5.71
15:06:03.442,-0.04,0.07,0.05,-3.6,1.08,-5.17
15:06:03.449,0.02,0.13,-0.02,-4.44,0.85,-5.08
15:06:03.457,0.02,0.06,-0.04,-5.48,0.89,-5.53
15:06:03.464,-0.04,0.05,-0.05,-5.92,0.85,-5.2
15:06:03.471,-0.03,0.03,-0.04,-5.68,0.94,-4.85
15:06:03.479,-0.08,0.03,-0.06,-5.49,0.92,-4.14
15:06:03.486,-0.09,0.02,-0.13,-5.61,0.57,-3.43
15:06:03.493,-0.07,-0.0,-0.08,-5.37,0.63,-2.9
15:06:03.500,-0.05,0.02,-0.05,-4.72,0.32,-2.61
15:06:03.508,-0.0,0.01,-0.05,-3.42,0.27,-2.46
15:06:03.515,-0.01,0.02,-0.04,-2.47,0.24,-2.07
15:06:03.522,0.01,-0.01,-0.06,-2.18,-0.15,-2.17
15:06:03.529,0.01,-0.02,-0.1,-2.17,-0.27,-2.17
15:06:03.537,0.02,-0.06,-0.12,-2.21,-0.65,-1.87
15:06:03.544,0.02,-0.07,-0.13,-2.47,-0.78,-1.89
15:06:03.551,0.02,-0.08,-0.12,-2.79,-0.97,-1.72
15:06:03.559,0.02,-0.1,-0.16,-3.09,-1.19,-1.86
15:06:03.566,0.02,-0.07,-0.13,-3.54,-1.53,-1.32
15:06:03.573,-0.06,-0.02,-0.03,-3.29,-1.92,-0.55
15:06:03.580,-0.11,0.02,0.04,-2.62,-2.55,0.64
15:06:03.588,-0.17,0.05,0.05,-2.15,-2.84,1.59
15:06:03.595,-0.19,0.08,0.06,-2.29,-2.98,2.87
15:06:03.602,-0.2,0.07,0.01,-3.27,-3.51,3.86
15:06:03.610,-0.2,0.03,-0.04,-4.85,-4.17,5.34
15:06:03.617,-0.18,0.05,0.02,-5.72,-5.0,6.87
15:06:03.625,-0.18,0.07,0.05,-5.18,-6.08,8.19
15:06:03.632,-0.12,0.05,-0.03,-5.4,-6.93,9.28
15:06:03.639,-0.12,0.05,-0.06,-5.95,-7.59,10.25
15:06:03.646,-0.1,0.08,-0.05,-5.79,-8.05,11.48
15:06:03.654,-0.13,0.05,-0.05,-6.0,-8.37,12.25
15:06:03.661,-0.13,0.02,-0.05,-5.65,-8.4,13.51
15:06:03.668,-0.13,0.03,-0.08,-5.17,-8.8,14.6
15:06:03.676,-0.12,0.04,-0.07,-5.18,-9.41,15.82
15:06:03.683,-0.08,0.03,-0.07,-4.98,-7.92,16.51
15:06:03.690,-0.06,0.05,-0.03,-4.7,-10.21,17.29
15:06:03.698,-0.04,0.04,-0.02,-4.22,-10.66,17.51
15:06:03.705,0.03,0.05,0.01,-4.23,-10.65,17.41
15:06:03.712,0.06,0.03,-0.03,-4.58,-10.46,16.94
15:06:03.719,0.1,0.05,-0.04,-5.17,-10.05,16.18
15:06:03.727,0.09,0.03,-0.0,-6.05,-9.37,15.23
15:06:03.734,0.11,0.0,0.01,-6.41,-8.42,14.01
15:06:03.741,0.1,-0.03,-0.03,-6.69,-7.36,12.75
15:06:03.749,0.17,-0.08,-0.07,-6.64,-6.12,11.24
15:06:03.756,0.15,-0.12,-0.07,-6.74,-5.12,9.61
15:06:03.763,0.16,-0.12,-0.09,-6.92,-3.89,8.29
15:06:03.770,0.14,-0.15,-0.06,-6.94,-2.92,7.25
15:06:03.778,0.1,-0.12,-0.1,-7.4,-2.18,6.04
15:06:03.785,0.1,-0.11,-0.05,-7.75,-1.42,5.29
15:06:03.792,0.12,-0.05,0.04,-7.07,-0.83,4.22
15:06:03.800,0.19,0.01,0.12,-6.38,0.12,3.39
15:06:03.807,0.09,0.07,0.08,-5.97,0.07,2.64
15:06:03.814,0.18,0.08,0.08,-6.47,1.16,1.21
15:06:03.822,0.15,0.03,0.05,-6.73,1.61,0.0
15:06:03.829,0.17,0.01,0.0,-7.29,2.45,-1.36
15:06:03.836,0.14,-0.01,-0.02,-7.18,2.95,-2.39
15:06:03.844,0.12,0.01,-0.0,-6.95,3.93,-3.04
15:06:03.851,0.11,0.02,0.03,-6.4,4.27,-3.51
15:06:03.858,0.1,0.05,0.04,-5.8,4.88,-4.27
15:06:03.865,0.1,0.1,0.04,-5.24,4.83,-4.39
15:06:03.873,0.09,0.08,0.05,-3.99,5.25,-5.01
15:06:03.880,0.08,0.03,0.04,-3.16,5.03,-5.27
15:06:03.887,0.08,0.05,0.0,-2.66,5.02,-5.26
15:06:03.895,0.06,0.04,0.01,-1.76,5.11,-5.1
15:06:03.902,0.02,0.04,0.01,-1.8,5.08,-5.0
15:06:03.909,-0.0,0.05,0.05,-2.06,5.37,-4.59
15:06:03.917,-0.02,0.01,0.03,-2.5,5.1,-4.72
15:06:03.924,-0.01,-0.0,0.02,-3.21,5.08,-4.36
15:06:03.931,0.01,-0.04,-0.01,-3.62,4.77,-4.55
15:06:03.938,0.04,-0.09,-0.09,-4.86,4.77,-4.47
15:06:03.946,0.04,-0.12,-0.08,-5.53,4.51,-4.97
15:06:03.953,0.07,-0.12,-0.12,-6.24,4.33,-5.1
15:06:03.960,0.09,-0.1,-0.1,-6.47,4.4,-5.3
15:06:03.967,0.03,-0.08,-0.05,-7.8,4.07,-5.1
15:06:03.975,0.05,-0.02,0.02,-4.45,4.28,-5.23
15:06:03.982,0.06,0.06,0.07,-3.07,4.01,-4.95
15:06:03.989,0.04,0.1,0.03,-2.88,3.91,-5.3
15:06:03.997,0.03,0.11,0.04,-3.22,1.94,-5.13
15:06:04.004,-0.01,0.1,0.08,-2.62,3.53,-4.97
15:06:04.011,-0.01,0.12,0.07,-2.8,3.53,-5.14
15:06:04.018,0.01,0.06,0.03,-3.4,3.84,-5.2
15:06:04.026,0.0,0.06,-0.03,-4.53,3.81,-5.68
15:06:04.033,0.02,-0.01,-0.06,-5.15,4.32,-5.61
15:06:04.040,-0.01,-0.01,-0.03,-4.97,4.25,-5.65
15:06:04.048,-0.02,-0.01,0.01,-3.66,4.3,-5.29
15:06:04.055,-0.03,0.05,0.01,-2.61,4.14,-5.23
15:06:04.062,-0.02,0.02,-0.03,-2.47,5.82,-4.98
15:06:04.069,-0.02,0.04,-0.04,-2.47,3.59,-4.74
15:06:04.077,-0.02,0.01,-0.0,-2.5,3.22,-4.06
15:06:04.084,-0.04,0.03,-0.01,-2.46,3.17,-3.97
15:06:04.091,-0.05,-0.0,-0.02,-2.93,3.08,-3.33
15:06:04.099,-0.06,-0.01,-0.02,-2.53,2.97,-3.42
15:06:04.106,0.01,-0.0,-0.02,-2.59,2.98,-3.36
15:06:04.113,-0.09,-0.02,-0.04,-2.73,3.37,-3.2
15:06:04.121,-0.04,-0.03,-0.04,-3.05,3.27,-3.24
15:06:04.128,0.03,-0.06,-0.07,-3.47,3.61,-3.03
15:06:04.135,-0.01,-0.03,-0.1,-3.84,3.48,-3.17
15:06:04.142,0.01,-0.03,-0.06,-3.92,3.1,-2.91
15:06:04.150,-0.01,-0.0,0.01,-3.05,2.91,-3.0
15:06:04.157,0.03,0.03,0.03,-2.54,2.43,-2.82
15:06:04.164,0.02,0.07,0.03,-1.89,2.08,-2.73
15:06:04.172,0.03,0.08,-0.02,-2.52,1.82,-2.7
15:06:04.179,0.07,0.05,-0.06,-3.0,1.5,-3.29
15:06:04.186,0.08,0.08,0.01,-2.87,1.76,-4.05
15:06:04.194,0.07,0.05,-0.03,-3.1,2.13,-4.43
15:06:04.201,0.05,0.04,-0.06,-3.87,2.38,-4.27
15:06:04.208,-0.02,0.04,-0.01,-4.23,2.66,-4.0
15:06:04.215,-0.04,-0.01,-0.03,-5.06,2.58,-3.51
15:06:04.223,-0.13,-0.02,-0.0,-5.73,2.66,-2.98
15:06:04.230,-0.11,-0.06,0.01,-5.77,2.03,-2.15
15:06:04.237,-0.1,-0.09,-0.04,-5.67,1.49,-1.29
15:06:04.245,-0.11,-0.13,-0.05,-5.06,0.4,-0.27
15:06:04.252,-0.07,-0.13,-0.03,-4.18,-0.45,0.54
15:06:04.259,-0.03,-0.1,-0.02,-2.62,-1.58,1.51
15:06:04.267,-0.08,-0.08,-0.06,-3.91,-2.25,2.64
15:06:04.274,-0.05,-0.06,-0.1,-2.08,-2.61,3.15
15:06:04.281,-0.12,-0.04,-0.09,-3.34,-2.97,3.49
15:06:04.288,-0.06,-0.02,-0.01,-4.27,-2.89,3.46
15:06:04.296,-0.04,0.02,0.08,-4.66,-2.41,3.45
15:06:04.303,-0.02,0.06,0.17,-4.36,-2.24,3.71
15:06:04.310,-0.02,0.1,0.16,-3.96,-2.21,3.43
15:06:04.318,0.02,0.08,0.14,-3.66,-2.14,3.02
15:06:04.325,0.04,0.09,0.12,-3.15,-3.87,2.42
15:06:04.332,0.08,0.06,0.07,-2.63,-1.81,2.12
15:06:04.339,0.03,0.04,0.03,-2.35,-1.88,1.85
15:06:04.347,0.02,0.04,-0.02,-2.32,-1.7,1.93
15:06:04.354,-0.01,0.02,-0.06,-3.13,-1.92,2.23
15:06:04.361,-0.05,0.01,-0.06,-1.99,-0.03,3.05
15:06:04.369,-0.11,0.0,-0.06,-4.34,-2.21,3.61
15:06:04.376,-0.11,0.02,-0.03,-4.91,-2.34,4.36
15:06:04.383,-0.12,-0.02,-0.05,-5.18,-2.25,4.76
15:06:04.390,-0.11,-0.06,-0.08,-6.45,-2.14,5.02
15:06:04.398,-0.11,-0.06,-0.0,-6.65,-1.9,5.22
15:06:04.405,-0.06,-0.02,-0.02,-6.56,-1.69,5.34
15:06:04.412,-0.03,-0.02,0.0,-6.96,-1.7,5.11
15:06:04.420,0.02,-0.01,0.02,-6.97,-1.34,4.92
15:06:04.427,0.07,0.0,0.04,-6.79,-1.56,4.43
15:06:04.434,0.09,-0.02,0.05,-5.72,-1.19,3.67
15:06:04.441,0.07,-0.07,0.03,-4.34,-0.92,2.91
15:06:04.449,0.07,-0.04,0.01,-3.21,-0.75,2.35
15:06:04.456,0.07,-0.06,-0.05,-2.62,-0.15,1.67
15:06:04.463,0.01,-0.06,-0.06,-3.08,0.01,1.59
15:06:04.471,0.05,-0.03,-0.02,-3.85,0.35,1.4
15:06:04.478,0.06,-0.03,0.02,-4.72,0.51,1.0
15:06:04.485,0.01,-0.01,0.04,-6.0,0.5,0.6
15:06:04.492,0.01,-0.01,0.06,-6.24,0.01,0.77
15:06:04.500,0.06,0.03,0.09,-6.21,0.05,0.93
15:06:04.507,-0.02,0.03,0.14,-6.28,-0.49,0.86
15:06:04.514,-0.0,0.03,0.1,-6.25,-0.23,1.14
15:06:04.522,-0.07,0.0,0.03,-6.01,-0.48,1.59
15:06:04.529,-0.09,-0.01,0.01,-5.48,-0.29,2.57
15:06:04.536,-0.06,-0.02,0.0,-4.67,-0.39,2.67
15:06:04.543,-0.01,-0.0,-0.04,-4.29,-1.96,2.43
15:06:04.551,-0.01,-0.01,-0.08,-4.92,0.37,2.13
15:06:04.558,0.06,0.0,-0.07,-5.87,0.3,3.84
15:06:04.565,0.04,0.03,0.03,-5.78,0.16,3.86
15:06:04.573,0.16,0.1,0.05,-5.29,-0.1,1.35
15:06:04.580,0.14,0.04,0.06,-4.8,-0.15,0.51
15:06:04.587,0.2,0.05,-0.05,-5.37,0.01,-0.94
15:06:04.595,0.18,-0.04,-0.14,-6.34,0.2,-0.07
15:06:04.602,0.14,-0.07,-0.12,-6.98,0.42,-2.35
15:06:04.609,0.04,-0.05,-0.08,-6.68,0.47,-2.14
15:06:04.617,-0.02,-0.03,-0.05,-6.81,0.08,-1.67
15:06:04.624,-0.07,-0.03,-0.07,-7.23,-0.13,-1.04
15:06:04.631,-0.07,-0.03,-0.05,-7.44,-0.28,-0.35
15:06:04.639,-0.1,-0.0,-0.01,-7.05,-0.87,0.19
15:06:04.646,-0.09,0.02,0.02,-6.79,-1.11,0.96
15:06:04.653,-0.12,-0.01,-0.01,-7.0,-1.23,1.74
15:06:04.661,-0.12,0.04,-0.0,-7.47,-1.6,2.36
15:06:04.668,-0.06,0.03,-0.01,-7.98,-1.57,2.99
15:06:04.675,-0.09,0.02,0.02,-8.25,-1.54,3.49
15:06:04.683,-0.07,0.03,0.06,-7.82,-1.7,3.78
15:06:04.690,-0.06,0.03,0.06,-7.38,-1.85,3.92
15:06:04.697,-0.02,0.03,0.06,-6.73,-1.59,3.94
15:06:04.704,-0.02,0.03,0.09,-5.78,-1.38,3.7
15:06:04.712,0.01,0.04,0.13,-4.18,-0.89,3.3
15:06:04.719,0.02,0.04,0.08,-3.37,-0.28,3.0
15:06:04.726,0.02,0.01,0.02,-3.08,-0.13,2.26
15:06:04.734,0.05,-0.06,-0.1,-2.05,0.57,1.62
15:06:04.741,0.05,-0.07,-0.06,-4.43,0.76,1.16
15:06:04.748,0.04,-0.06,-0.01,-4.37,1.37,1.23
15:06:04.755,-0.01,-0.03,-0.03,-4.4,0.95,1.13
15:06:04.763,0.06,-0.04,-0.05,-4.3,1.34,0.58
15:06:04.770,0.05,-0.05,-0.07,-4.82,1.18,-0.12
15:06:04.777,0.14,-0.04,-0.09,-5.24,1.05,-1.08
15:06:04.785,0.1,-0.02,-0.05,-6.18,1.04,-1.51
15:06:04.792,0.1,0.01,-0.01,-6.16,1.26,-2.21
15:06:04.799,0.14,0.02,-0.02,-6.19,1.33,-2.62
15:06:04.806,0.12,0.08,0.04,-6.01,1.49,-3.33
15:06:04.814,0.12,0.13,0.11,-4.91,1.57,-4.04
15:06:04.821,0.1,0.17,0.17,-3.36,1.77,-4.36
15:06:04.828,0.07,0.17,0.15,-2.45,2.16,-4.78
15:06:04.836,-0.01,0.13,0.08,-2.73,2.49,-4.59
15:06:04.843,-0.07,0.04,0.01,-4.33,2.19,-4.14
15:06:04.850,-0.14,-0.03,0.05,-4.73,1.59,-2.96
15:06:04.857,-0.14,-0.0,0.1,-4.6,1.38,-1.48
15:06:04.865,-0.19,-0.04,0.1,-5.78,0.61,-0.1
15:06:04.872,-0.15,0.04,0.0,-3.34,-0.28,1.09
15:06:04.879,-0.15,-0.03,0.01,-3.31,-1.06,2.09
15:06:04.887,-0.16,-0.01,0.0,-3.07,-1.94,3.06
15:06:04.894,-0.13,-0.03,0.01,-3.27,-2.46,4.46
15:06:04.901,-0.1,-0.02,-0.02,-3.85,-2.95,5.36
15:06:04.908,-0.08,-0.03,0.02,-4.17,-3.3,6.36
15:06:04.916,-0.1,-0.02,0.05,-4.28,-3.62,6.63
15:06:04.923,-0.06,0.01,0.09,-3.82,-3.53,6.96
15:06:04.930,-0.02,-0.01,0.11,-2.83,-3.38,6.84
15:06:04.938,-0.0,0.0,0.07,-2.54,-3.12,6.41
15:06:04.945,0.02,-0.03,-0.02,-3.0,-3.1,6.01
15:06:04.952,0.05,-0.06,-0.04,-3.83,-2.82,6.14
15:06:04.959,0.05,-0.04,0.01,-4.34,-2.89,5.74
15:06:04.967,0.07,-0.0,0.04,-4.05,-2.73,5.51
15:06:04.974,0.03,0.0,0.07,-2.0,-2.77,5.31
15:06:04.981,0.05,0.02,0.05,-3.81,-2.94,4.84
15:06:04.988,0.06,0.03,0.02,-4.06,-3.04,4.43
15:06:04.996,0.03,0.01,0.03,-4.5,-3.18,4.18
15:06:05.003,0.0,-0.05,0.05,-4.66,-3.16,4.27
15:06:05.010,-0.01,-0.02,0.05,-4.35,-3.17,4.58
15:06:05.018,-0.04,-0.05,0.04,-3.99,-2.93,5.15
15:06:05.025,-0.06,-0.03,0.05,-3.27,-2.54,5.55
15:06:05.032,-0.07,-0.01,0.05,-2.29,-2.56,5.74
15:06:05.039,-0.04,-0.05,-0.0,-2.28,-2.3,5.85
15:06:05.047,-0.04,-0.04,-0.03,-2.81,-2.57,5.82
15:06:05.054,0.01,-0.04,-0.04,-4.03,-2.37,5.68
15:06:05.061,0.03,-0.05,-0.02,-5.15,-2.44,5.25
15:06:05.068,0.06,-0.0,0.03,-5.66,-2.14,5.43
15:06:05.076,0.01,-0.0,0.05,-6.21,-2.74,5.32
15:06:05.083,0.09,0.03,0.07,-5.66,-3.05,5.44
15:06:05.091,0.07,-0.01,0.06,-4.52,-2.79,5.0
15:06:05.098,0.08,-0.03,0.07,-3.02,-2.5,4.27
15:06:05.105,0.09,-0.03,0.03,-1.4,-2.08,3.51
15:06:05.113,0.11,-0.04,-0.06,-0.91,-1.67,2.78
15:06:05.120,0.1,-0.03,-0.11,-1.3,-1.51,2.55
15:06:05.127,0.06,-0.05,-0.09,-2.18,-1.44,2.92
15:06:05.135,-0.01,-0.07,-0.05,-2.6,-1.63,3.7
15:06:05.142,-0.05,-0.01,0.02,-2.56,-2.05,4.32
15:06:05.149,-0.09,-0.05,0.01,-3.42,-2.35,5.2
15:06:05.156,-0.11,-0.08,-0.04,-4.76,-2.41,5.67
15:06:05.164,-0.15,-0.1,-0.07,-6.21,-2.82,6.46
15:06:05.171,-0.15,-0.06,-0.0,-6.34,-3.37,7.7
15:06:05.178,-0.14,-0.06,-0.0,-5.79,-3.51,8.71
15:06:05.186,-0.1,-0.07,-0.06,-6.0,-3.68,9.25
15:06:05.193,-0.02,-0.0,-0.06,-6.23,-3.81,9.22
15:06:05.200,0.05,0.03,-0.01,-6.6,-3.95,9.01
15:06:05.207,0.08,0.05,-0.01,-6.48,-3.86,8.74
15:06:05.215,0.11,0.1,0.04,-6.47,-3.77,8.51
15:06:05.222,0.1,0.09,0.03,-5.74,-3.79,8.07
15:06:05.229,0.11,0.1,0.03,-5.32,-3.84,7.53
15:06:05.237,0.15,0.08,-0.0,-5.05,-3.48,7.0
15:06:05.244,0.12,0.06,-0.02,-4.64,-3.68,7.04
15:06:05.251,0.07,0.03,-0.06,-4.34,-3.32,6.68
15:06:05.258,0.03,0.02,-0.09,-4.61,-3.04,6.56
15:06:05.266,0.0,0.06,-0.04,-4.79,-2.89,6.92
15:06:05.273,0.01,0.06,0.03,-4.38,-3.04,6.61
15:06:05.280,0.04,0.07,0.09,-3.27,-2.9,6.77
15:06:05.288,0.06,0.06,0.08,-2.44,-2.73,6.57
15:06:05.295,0.09,0.06,0.07,-1.51,-2.84,5.92
15:06:05.302,0.15,0.06,0.01,-1.62,-2.6,5.31
15:06:05.309,0.14,0.06,-0.01,-2.37,-2.21,4.54
15:06:05.317,0.11,0.05,0.02,-3.09,-2.07,4.4
15:06:05.324,0.1,0.01,-0.0,-5.86,-3.86,4.09
15:06:05.331,0.06,-0.02,-0.01,-4.22,-1.7,1.96
15:06:05.338,0.06,-0.01,0.01,-4.15,-1.44,3.3
15:06:05.346,0.07,-0.01,0.02,-3.75,-0.95,2.54
15:06:05.353,0.04,-0.0,0.01,-3.63,-0.34,1.55
15:06:05.360,0.1,0.0,-0.0,-3.79,0.52,0.72
15:06:05.368,0.11,-0.04,-0.07,-4.22,1.08,1.83
15:06:05.375,0.12,-0.04,-0.09,-4.86,2.1,-1.04
15:06:05.382,0.12,-0.05,-0.09,-5.19,3.07,-2.15
15:06:05.389,0.17,-0.07,-0.06,-4.64,3.23,-2.57
15:06:05.397,0.22,-0.05,-0.05,-4.06,3.09,-3.35
15:06:05.404,0.3,-0.08,-0.12,-4.41,2.98,-4.54
15:06:05.411,0.3,-0.07,-0.12,-5.34,2.59,-6.2
15:06:05.419,0.33,-0.03,-0.06,-5.42,2.48,-7.39
15:06:05.426,0.22,0.0,0.0,-5.17,2.23,-7.73
15:06:05.433,0.13,0.03,0.06,-4.89,1.99,-7.68
15:06:05.440,-0.03,0.01,0.06,-4.82,1.9,-6.85
15:06:05.448,-0.06,-0.01,0.06,-5.42,1.87,-6.18
15:06:05.455,-0.16,-0.03,0.1,-6.01,1.69,-4.7
15:06:05.462,-0.17,-0.02,0.06,-6.27,1.3,-3.46
15:06:05.469,-0.18,-0.04,0.03,-6.76,1.11,-2.29
15:06:05.477,-0.17,-0.03,0.06,-6.64,0.36,-1.17
15:06:05.484,-0.09,0.01,0.09,-6.33,-0.76,0.13
15:06:05.491,-0.02,0.06,0.13,-5.06,-1.67,1.51
15:06:05.499,-0.01,0.11,0.17,-3.46,-2.53,2.49
15:06:05.506,0.01,0.09,0.12,-2.16,-3.6,2.68
15:06:05.513,0.08,0.1,0.03,-1.79,-3.93,2.83
15:06:05.521,0.11,0.01,-0.08,-2.79,-5.86,2.3
15:06:05.528,0.06,-0.02,-0.09,-2.02,-3.66,2.18
15:06:05.535,0.08,-0.07,-0.02,-4.85,-3.47,2.27
15:06:05.542,0.03,-0.07,0.03,-4.79,-3.36,2.41
15:06:05.550,0.08,-0.04,0.03,-4.86,-3.26,2.43
15:06:05.557,0.11,-0.05,0.03,-5.14,-3.57,2.06
15:06:05.564,0.16,-0.04,0.03,-5.27,-5.82,1.54
15:06:05.572,0.12,-0.05,0.02,-5.33,-4.48,0.93
15:06:05.579,0.1,-0.07,-0.03,-5.51,-5.12,1.09
15:06:05.586,0.1,-0.08,-0.0,-5.44,-5.42,1.57
15:06:05.593,0.07,-0.1,0.0,-5.23,-5.69,1.64
15:06:05.601,0.03,-0.09,-0.02,-4.6,-6.05,2.13
15:06:05.608,0.06,-0.08,-0.07,-4.69,-5.73,2.16
15:06:05.615,0.03,-0.1,-0.09,-5.47,-5.57,1.7
15:06:05.623,0.05,-0.05,-0.02,-5.85,-4.67,1.8
15:06:05.630,0.03,-0.06,0.0,-6.4,-4.6,1.32
15:06:05.638,0.03,-0.02,0.04,-6.7,-4.47,1.35
15:06:05.645,0.04,-0.02,0.05,-6.76,-4.48,1.27
15:06:05.652,0.1,-0.07,-0.01,-6.7,-4.09,1.1
15:06:05.659,0.06,-0.0,-0.02,-6.82,-4.21,0.84
15:06:05.667,0.04,0.01,0.16,-7.78,-4.22,1.0
15:06:05.674,0.03,0.04,0.18,-4.18,-4.28,1.33
15:06:05.681,-0.01,0.09,0.27,-1.28,-4.54,2.14
15:06:05.689,0.08,0.07,0.04,-1.2,-4.4,1.81
15:06:05.696,0.07,0.06,0.03,-1.79,-4.69,1.38
15:06:05.703,0.12,0.08,0.1,-1.87,-4.41,0.83
15:06:05.710,0.02,0.01,0.05,-1.41,-4.16,0.97
15:06:05.718,0.03,0.04,-0.03,-2.05,-3.76,1.45
15:06:05.725,0.02,-0.02,-0.1,-3.4,-4.44,1.71
15:06:05.732,0.1,-0.08,-0.18,-5.44,-4.24,1.55
15:06:05.740,-0.02,-0.11,-0.14,-6.73,-4.4,1.71
15:06:05.747,-0.07,-0.06,0.03,-6.25,-3.95,2.83
15:06:05.754,-0.14,-0.02,0.07,-4.6,-4.82,4.25
15:06:05.761,-0.1,0.02,0.04,-3.49,-5.52,5.62
15:06:05.769,-0.05,0.06,0.0,-4.11,-5.99,6.36
15:06:05.776,-0.02,0.02,-0.05,-5.5,-6.19,6.02
15:06:05.783,0.08,0.02,-0.05,-7.08,-6.07,5.86
15:06:05.791,0.12,-0.06,-0.05,-5.92,-5.94,5.49
15:06:05.798,0.16,-0.07,-0.05,-7.83,-5.57,4.93
15:06:05.805,0.16,-0.08,-0.06,-9.73,-5.38,4.07
15:06:05.812,0.19,-0.03,-0.02,-7.74,-4.63,2.73
15:06:05.820,0.23,-0.02,-0.0,-7.6,-4.09,1.4
15:06:05.827,0.2,-0.0,-0.0,-7.77,-3.28,0.19
15:06:05.834,0.17,-0.03,-0.02,-5.95,-2.66,-0.75
15:06:05.842,0.19,-0.04,0.0,-7.63,-2.28,-1.39
15:06:05.849,0.16,0.04,0.13,-7.11,-1.84,-2.28
15:06:05.856,0.16,0.06,0.2,-7.79,-1.12,-3.39
15:06:05.864,0.15,0.14,0.24,-4.03,-0.99,-3.99
15:06:05.871,0.16,0.19,0.23,-2.47,-0.7,-5.05
15:06:05.878,0.21,0.14,0.11,-1.85,-0.38,-6.14
15:06:05.885,0.19,0.11,0.09,-2.24,0.33,-7.04
15:06:05.893,0.16,0.02,0.04,-1.99,0.98,-8.28
15:06:05.900,0.11,-0.04,-0.01,-2.44,1.66,-8.81
15:06:05.907,0.1,-0.09,-0.09,-2.39,2.3,-9.36
15:06:05.915,0.02,-0.12,-0.07,-2.48,3.24,-9.38
15:06:05.922,-0.03,-0.13,-0.11,-2.79,3.57,-8.92
15:06:05.929,-0.08,-0.12,-0.11,-3.85,2.98,-7.47
15:06:05.936,-0.09,-0.11,-0.06,-4.31,1.68,-5.24
15:06:05.944,-0.1,-0.06,-0.02,-4.91,0.34,-3.29
15:06:05.951,-0.1,-0.08,-0.02,-5.3,-1.02,-2.17
15:06:05.958,-0.09,-0.06,0.0,-5.2,-2.18,-1.22
15:06:05.965,-0.05,-0.04,0.07,-4.01,-2.88,-0.87
15:06:05.973,-0.0,-0.01,0.09,-2.9,-2.99,-0.74
15:06:05.980,0.06,-0.02,0.02,-2.3,-2.34,-0.74
15:06:05.987,0.1,-0.02,-0.02,-2.41,-1.59,-1.53
15:06:05.995,0.18,-0.0,-0.04,-3.15,-0.61,-2.8
15:06:06.002,0.24,0.01,-0.03,-4.28,0.32,-4.58
15:06:06.009,0.27,0.0,-0.05,-5.74,0.98,-6.22
15:06:06.016,0.35,-0.01,-0.07,-6.94,1.16,-8.1
15:06:06.024,0.41,0.0,-0.02,-7.59,1.05,-10.29
15:06:06.031,0.36,0.03,0.04,-7.62,0.51,-11.65
15:06:06.038,0.26,0.09,0.08,-6.64,0.21,-12.42
15:06:06.045,0.2,0.08,0.12,-5.41,-1.95,-12.2
15:06:06.053,0.06,0.09,0.11,-4.88,-0.4,-11.19
15:06:06.060,-0.03,0.04,0.05,-5.07,-0.63,-10.02
15:06:06.067,-0.08,-0.01,0.04,-5.31,-0.98,-8.96
15:06:06.075,-0.12,-0.02,0.05,-5.11,-1.3,-8.13
15:06:06.082,-0.18,-0.04,0.02,-4.92,-1.6,-6.92
15:06:06.089,-0.18,-0.03,-0.01,-4.91,-2.46,-4.88
15:06:06.097,-0.14,-0.01,-0.03,-4.76,-3.61,-3.39
15:06:06.104,-0.1,-0.04,-0.05,-5.48,-4.31,-2.2
15:06:06.111,-0.03,-0.09,-0.06,-5.98,-5.02,-1.04
15:06:06.118,-0.01,-0.09,-0.03,-6.19,-5.6,-0.52
15:06:06.126,-0.01,-0.08,-0.02,-5.71,-6.18,-0.07
15:06:06.133,0.04,-0.1,0.01,-5.11,-6.94,0.42
15:06:06.140,0.11,-0.04,0.03,-5.21,-7.36,0.24
15:06:06.148,0.16,-0.01,0.03,-5.61,-7.31,-0.36
15:06:06.155,0.14,-0.01,0.04,-6.23,-7.51,-1.0
15:06:06.162,0.13,-0.02,0.07,-6.07,-7.63,-1.21
15:06:06.169,0.06,-0.03,0.12,-5.08,-7.6,-1.2
15:06:06.177,0.06,-0.05,0.13,-2.9,-5.9,-0.96
15:06:06.184,0.04,0.08,0.1,-1.93,-7.59,-1.02
15:06:06.191,-0.01,0.02,-0.03,-2.95,-6.88,-1.56
15:06:06.198,-0.07,0.08,-0.14,-3.98,-6.28,-1.9
15:06:06.206,-0.05,-0.08,-0.03,-7.57,-6.0,-1.16
15:06:06.213,-0.01,0.05,0.13,-6.36,-6.48,-0.2
15:06:06.220,-0.01,0.09,0.15,-5.5,-6.07,0.31
15:06:06.227,-0.05,0.07,0.09,-5.58,-6.23,-0.38
15:06:06.235,0.01,0.06,0.02,-6.13,-5.5,-1.09
15:06:06.242,0.03,0.05,0.03,-6.3,-5.49,-0.91
15:06:06.249,0.04,0.05,0.06,-5.44,-5.04,-0.87
15:06:06.257,0.05,0.04,0.08,-4.34,-4.95,-0.88
15:06:06.264,0.05,0.03,0.07,-2.95,-4.57,-1.0
15:06:06.271,0.06,0.01,0.02,-2.2,-5.78,-1.66
15:06:06.278,0.07,-0.01,-0.03,-2.05,-3.51,-2.49
15:06:06.286,0.08,0.04,-0.02,-2.41,-3.5,-2.97
15:06:06.293,0.08,0.02,0.0,-3.28,-3.12,-3.26
15:06:06.300,0.05,-0.02,0.04,-3.47,-2.68,-3.71
15:06:06.308,0.05,0.0,0.06,-2.83,-2.99,-3.07
15:06:06.315,0.06,-0.02,0.04,-2.01,-3.17,-3.37
15:06:06.322,0.03,-0.06,-0.06,-1.98,-2.82,-2.0
15:06:06.329,0.07,-0.08,-0.12,-3.1,-2.33,-4.78
15:06:06.337,0.05,-0.1,-0.1,-3.83,-1.89,-5.11
15:06:06.344,0.05,-0.11,-0.06,-3.73,-1.91,-4.81
15:06:06.351,0.01,-0.05,0.03,-3.37,-2.25,-4.01
15:06:06.359,-0.02,-0.04,0.01,-3.22,-2.34,-5.88
15:06:06.366,-0.01,-0.06,-0.0,-3.3,-2.36,-4.17
15:06:06.373,0.01,-0.05,0.01,-4.19,-2.27,-4.2
15:06:06.381,0.01,-0.03,0.04,-5.26,-2.01,-3.98
15:06:06.388,0.02,0.0,0.03,-6.22,-2.14,-4.07
15:06:06.395,-0.02,0.01,0.04,-6.72,-2.5,-3.69
15:06:06.402,0.03,0.0,0.03,-7.5,-2.44,-3.87
15:06:06.410,0.11,0.02,0.02,-8.01,-2.17,-4.32
15:06:06.417,0.13,0.01,0.01,-7.67,-2.02,-5.13
15:06:06.424,0.13,-0.02,-0.04,-7.08,-2.07,-5.91
15:06:06.432,0.16,-0.04,-0.08,-6.67,-1.8,-6.52
15:06:06.439,0.15,-0.01,-0.04,-6.12,-1.61,-6.87
15:06:06.446,0.15,0.04,-0.01,-5.36,-1.38,-7.2
15:06:06.453,0.11,0.05,0.03,-4.83,-1.5,-7.57
15:06:06.461,0.1,0.05,0.05,-3.62,-1.49,-7.43
15:06:06.468,0.08,0.08,0.08,-2.72,-1.79,-7.53
15:06:06.475,0.06,0.08,0.03,-2.29,-1.93,-7.42
15:06:06.482,0.04,0.08,0.05,-2.43,-2.5,-7.33
15:06:06.490,0.03,0.09,0.06,-2.9,-2.5,-7.24
15:06:06.497,0.01,0.03,0.02,-3.61,-2.58,-6.69
15:06:06.504,-0.05,0.01,0.02,-4.35,-3.14,-6.26
15:06:06.511,-0.01,-0.0,-0.01,-4.37,-3.1,-7.76
15:06:06.519,-0.02,-0.01,-0.02,-4.72,-2.92,-5.8
15:06:06.526,-0.0,-0.03,0.01,-4.92,-2.93,-5.71
15:06:06.533,0.03,-0.03,0.02,-4.49,-2.81,-5.58
15:06:06.541,0.02,-0.05,-0.01,-3.5,-3.18,-5.25
15:06:06.548,-0.01,-0.05,-0.03,-3.27,-3.36,-4.75
15:06:06.555,-0.02,-0.01,-0.02,-2.92,-3.83,-4.14
15:06:06.562,-0.02,-0.02,-0.01,-2.56,-4.07,-3.75
15:06:06.570,-0.01,-0.01,0.03,-2.22,-4.36,-3.28
15:06:06.577,-0.03,-0.05,-0.03,-2.27,-4.38,-3.13
15:06:06.584,-0.04,-0.03,-0.07,-2.94,-4.37,-2.72
15:06:06.592,0.01,-0.05,-0.04,-3.52,-4.46,-2.68
15:06:06.599,-0.01,-0.04,-0.04,-4.24,-4.49,-2.51
15:06:06.606,-0.03,-0.04,-0.03,-5.08,-4.09,-2.63
15:06:06.613,0.03,-0.02,-0.0,-5.36,-4.31,-2.62
15:06:06.621,0.05,0.02,0.01,-4.94,-4.35,-2.75
15:06:06.628,0.11,-0.0,-0.01,-4.75,-4.05,-1.99
15:06:06.636,0.14,0.04,-0.01,-4.34,-3.81,-4.93
15:06:06.643,0.21,0.03,-0.02,-4.27,-3.32,-6.06
15:06:06.650,0.23,0.03,-0.04,-4.17,-2.81,-7.52
15:06:06.657,0.26,0.05,-0.02,-4.07,-2.42,-8.89
15:06:06.665,0.28,0.1,0.06,-3.02,-1.92,-10.53
15:06:06.672,0.26,0.12,0.09,-2.38,-1.2,-11.75
15:06:06.679,0.17,0.1,0.08,-1.59,-0.94,-12.25
15:06:06.687,0.08,0.09,0.09,-1.15,-0.78,-12.58
15:06:06.694,0.03,0.06,0.07,-1.27,-0.72,-12.35
15:06:06.701,-0.04,-0.02,0.0,-1.7,-0.73,-11.93
15:06:06.708,-0.11,-0.05,0.01,-2.72,-0.81,-11.17
15:06:06.716,-0.14,-0.06,-0.04,-3.97,-1.36,-10.26
15:06:06.723,-0.17,-0.12,-0.06,-5.21,-2.3,-8.67
15:06:06.730,-0.18,-0.1,-0.05,-5.53,-3.34,-7.09
15:06:06.738,-0.16,-0.07,-0.01,-5.24,-5.86,-5.36
15:06:06.745,-0.19,-0.04,-0.0,-5.21,-4.89,-4.13
15:06:06.752,-0.12,-0.03,-0.03,-5.56,-5.21,-3.53
15:06:06.759,-0.1,-0.02,-0.03,-6.34,-5.72,-2.76
15:06:06.767,-0.06,-0.01,-0.03,-6.62,-5.98,-2.33
15:06:06.774,-0.03,0.01,0.05,-6.62,-6.34,-1.79
15:06:06.781,0.01,0.02,0.09,-5.96,-6.78,-1.14
15:06:06.788,-0.01,0.04,0.14,-4.78,-6.96,-0.5
15:06:06.796,0.03,0.05,0.12,-3.99,-7.04,-1.03
15:06:06.803,0.02,0.05,0.06,-4.0,-7.32,-1.4
15:06:06.810,0.01,0.02,0.03,-4.12,-7.09,-1.87
15:06:06.817,0.04,-0.01,-0.02,-5.2,-7.12,-2.01
15:06:06.825,-0.0,-0.06,-0.04,-6.21,-7.02,-2.06
15:06:06.832,-0.0,-0.04,-0.02,-7.14,-7.24,-1.29
15:06:06.839,-0.02,-0.03,-0.02,-7.6,-7.62,-0.62
15:06:06.847,-0.06,-0.01,0.03,-7.73,-8.44,0.45
15:06:06.854,-0.11,0.01,0.05,-7.08,-9.05,1.04
15:06:06.861,-0.09,0.02,0.09,-6.17,-9.71,1.68
15:06:06.868,-0.1,0.02,0.08,-4.95,-9.91,2.67
15:06:06.876,-0.09,0.04,0.07,-4.3,-10.31,3.11
15:06:06.883,-0.05,0.03,0.05,-3.49,-9.93,3.43
15:06:06.890,0.01,0.04,0.05,-3.52,-9.53,3.12
15:06:06.897,0.04,0.04,0.09,-3.57,-8.85,2.61
15:06:06.905,0.08,0.03,0.1,-3.39,-8.87,2.27
15:06:06.912,0.11,-0.0,0.09,-2.66,-8.84,0.0
15:06:06.919,0.14,-0.01,0.05,-2.6,-8.67,1.23
15:06:06.926,0.12,-0.06,-0.03,-3.28,-8.42,-0.04
15:06:06.934,0.12,-0.05,-0.05,-4.57,-8.08,-1.2
15:06:06.941,0.08,-0.11,-0.05,-5.04,-7.85,-1.55
15:06:06.948,0.05,-0.07,0.05,-4.44,-7.73,-1.51
15:06:06.955,0.03,-0.02,0.06,-3.11,-7.63,-1.31
15:06:06.963,0.05,-0.01,0.07,-2.18,-7.37,-1.63
15:06:06.970,0.05,-0.03,-0.03,-2.24,-7.07,-2.46
15:06:06.977,0.06,-0.03,-0.06,-2.9,-6.45,-3.03
15:06:06.985,0.05,-0.05,-0.08,-3.97,-6.5,-3.67
15:06:06.992,0.03,-0.06,-0.04,-4.19,-6.27,-3.6
15:06:06.999,0.06,-0.0,0.0,-4.32,-6.27,-3.43
15:06:07.006,0.04,0.02,0.03,-4.49,-6.02,-3.49
15:06:07.014,0.02,0.04,0.02,-4.45,-6.07,-3.54
15:06:07.021,-0.0,0.04,0.06,-4.52,-5.44,-3.72
15:06:07.028,-0.05,0.01,0.05,-4.68,-5.43,-3.44
15:06:07.035,-0.05,0.02,-0.0,-5.31,-5.3,-2.91
15:06:07.043,-0.07,-0.06,-0.06,-5.84,-5.33,-2.41
15:06:07.050,-0.08,-0.02,-0.01,-6.39,-5.26,-1.99
15:06:07.057,-0.07,-0.04,0.01,-6.11,-5.36,-1.62
15:06:07.065,-0.06,-0.01,0.03,-5.21,-5.57,-1.08
15:06:07.072,-0.04,0.02,0.06,-4.05,-7.73,-0.9
15:06:07.079,0.02,0.02,-0.01,-3.55,-3.98,-0.71
15:06:07.086,-0.0,0.04,0.02,-3.6,-6.08,-0.54
15:06:07.094,0.03,0.1,0.07,-3.35,-6.53,-0.59
15:06:07.101,0.0,0.07,0.04,-3.76,-6.55,-0.3
15:06:07.108,0.03,0.04,-0.03,-4.44,-6.73,-0.41
15:06:07.115,0.02,0.02,-0.04,-4.9,-6.76,-0.41
15:06:07.123,0.05,0.02,0.01,-5.13,-6.42,-0.78
15:06:07.130,-0.0,0.05,-0.01,-5.11,-5.99,-0.84
15:06:07.137,-0.02,0.03,-0.01,-5.05,-5.76,-0.69
15:06:07.145,-0.03,-0.02,-0.06,-4.9,-5.88,-0.58
15:06:07.152,-0.02,-0.05,-0.12,-5.51,-6.02,-0.4
15:06:07.159,-0.01,-0.04,-0.13,-5.76,-5.82,-0.02
15:06:07.166,0.01,-0.07,-0.09,-6.34,-5.74,-0.23
15:06:07.174,0.0,-0.04,-0.05,-6.12,-6.05,0.16
15:06:07.181,-0.01,-0.02,0.01,-5.47,-6.36,0.21
15:06:07.188,0.01,-0.01,0.0,-4.69,-6.63,0.51
15:06:07.195,-0.01,-0.01,0.0,-4.85,-6.77,0.41
15:06:07.203,0.02,-0.01,-0.01,-5.11,-6.4,-0.06
15:06:07.210,-0.0,-0.01,0.01,-5.77,-6.21,-0.0
15:06:07.217,-0.01,-0.02,0.02,-6.27,-5.76,-0.05
15:06:07.225,0.01,0.02,0.06,-6.53,-5.66,1.84
15:06:07.232,0.01,0.02,0.06,-6.13,-5.34,0.41
15:06:07.239,-0.0,0.03,0.09,-7.81,-5.55,1.89
15:06:07.246,0.05,0.05,0.1,-4.99,-4.99,-0.45
15:06:07.254,0.03,0.05,0.06,-4.36,-5.22,-0.97
15:06:07.261,0.09,0.04,0.02,-4.05,-4.91,-1.42
15:06:07.268,0.09,0.04,-0.0,-3.54,-4.65,-2.13
15:06:07.275,0.12,0.02,0.0,-3.24,-4.3,-2.77
15:06:07.283,0.13,0.03,-0.01,-2.65,-3.97,-3.91
15:06:07.290,0.19,0.03,-0.05,-2.53,-3.08,-5.17
15:06:07.297,0.19,-0.0,-0.03,-2.22,-2.91,-6.1
15:06:07.304,0.24,-0.02,-0.08,-2.28,-2.18,-7.21
15:06:07.312,0.2,-0.06,-0.1,-3.09,-2.29,-8.38
15:06:07.319,0.18,-0.04,-0.09,-3.56,-1.76,-9.26
15:06:07.326,0.14,-0.04,-0.05,-4.5,-1.86,-9.64
15:06:07.334,0.08,-0.02,-0.03,-5.02,-1.66,-9.87
15:06:07.341,0.01,-0.03,0.04,-5.17,-2.0,-9.42
15:06:07.348,-0.03,0.02,0.08,-4.83,-2.25,-8.52
15:06:07.355,-0.1,0.02,0.08,-4.82,-2.6,-9.73
15:06:07.363,-0.11,0.03,0.09,-4.83,-2.9,-7.0
15:06:07.370,-0.14,0.02,0.08,-4.83,-3.18,-6.23
15:06:07.377,-0.15,-0.01,0.06,-4.79,-3.95,-4.8
15:06:07.384,-0.16,0.01,0.07,-4.28,-4.49,-3.78
15:06:07.392,-0.15,0.03,0.09,-3.89,-5.02,-2.71
15:06:07.399,-0.11,0.01,0.06,-3.42,-5.41,-1.89
15:06:07.406,-0.07,0.01,0.06,-3.6,-5.57,-1.63
15:06:07.414,-0.03,0.0,0.01,-3.13,-5.66,-1.46
15:06:07.421,0.0,-0.0,0.03,-3.53,-5.82,-1.3
15:06:07.428,0.04,-0.02,0.02,-3.37,-6.01,-1.36
15:06:07.435,0.04,0.01,0.01,-3.19,-6.16,-1.76
15:06:07.443,0.1,-0.02,0.01,-3.79,-5.79,-2.65
15:06:07.450,0.1,0.0,0.0,-4.5,-6.05,-2.81
15:06:07.457,0.06,0.03,0.01,-5.66,-6.18,-3.06
15:06:07.464,0.09,0.01,0.05,-5.93,-6.44,-3.41
15:06:07.472,0.09,0.03,0.08,-5.56,-6.61,-3.67
15:06:07.479,0.03,0.05,0.1,-4.73,-6.59,-3.62
15:06:07.486,-0.01,0.04,0.05,-3.61,-6.66,-3.38
15:06:07.494,-0.02,0.02,0.03,-2.81,-7.28,-3.21
15:06:07.501,-0.01,0.03,-0.0,-2.17,-7.54,-2.94
15:06:07.508,-0.05,0.02,-0.05,-2.7,-7.5,-2.41
15:06:07.515,-0.07,-0.03,-0.08,-3.72,-7.99,-2.04
15:06:07.523,-0.04,-0.08,-0.04,-4.1,-8.15,-1.14
15:06:07.530,-0.02,-0.06,0.01,-3.97,-8.81,-0.33
15:06:07.537,-0.04,-0.08,-0.01,-3.86,-8.67,-0.24
15:06:07.545,-0.03,-0.08,-0.03,-4.45,-8.54,-0.37
15:06:07.552,0.02,-0.03,0.0,-5.28,-8.52,-0.53
15:06:07.559,0.01,-0.08,0.04,-7.73,-8.47,-0.54
15:06:07.566,0.01,-0.03,0.08,-5.36,-8.56,-0.6
15:06:07.574,-0.01,-0.03,0.08,-4.36,-8.6,-0.42
15:06:07.581,0.02,-0.03,0.07,-3.55,-8.45,-0.78
15:06:07.588,0.04,-0.01,0.04,-3.26,-8.35,-1.17
15:06:07.596,0.0,0.01,0.04,-3.5,-7.85,-1.33
15:06:07.603,0.02,-0.03,-0.03,-3.89,-8.05,-1.23
15:06:07.610,0.0,-0.04,-0.02,-3.69,-7.97,-1.52
15:06:07.618,0.05,-0.05,-0.09,-4.53,-9.75,-1.69
15:06:07.625,0.05,-0.07,-0.09,-5.26,-7.41,-2.26
15:06:07.632,0.06,-0.04,-0.07,-5.96,-7.66,-2.46
15:06:07.640,0.02,-0.04,-0.07,-7.04,-7.64,-2.64
15:06:07.647,0.02,-0.04,-0.05,-7.65,-7.84,-2.41
15:06:07.655,0.0,0.02,-0.01,-7.61,-8.33,-1.78
15:06:07.662,0.0,0.04,0.03,-7.21,-8.67,-1.15
15:06:07.669,-0.07,0.06,0.06,-6.31,-8.89,-0.57
15:06:07.676,-0.1,0.07,0.07,-5.35,-9.02,0.47
15:06:07.684,-0.12,0.09,0.1,-4.11,-8.9,1.19
15:06:07.691,-0.11,0.07,0.05,-3.27,-8.87,2.16
15:06:07.698,-0.13,0.06,0.04,-2.95,-9.05,2.79
15:06:07.706,-0.09,0.04,0.06,-2.69,-9.16,3.24
15:06:07.713,-0.1,0.02,0.0,-3.13,-9.34,3.65
15:06:07.720,-0.05,-0.05,-0.06,-4.09,-9.64,3.98
15:06:07.728,-0.05,-0.08,-0.03,-4.58,-9.72,4.34
15:06:07.735,0.0,-0.08,-0.01,-4.76,-11.73,4.49
15:06:07.742,-0.04,-0.08,-0.03,-4.56,-9.39,4.08
15:06:07.749,0.0,-0.09,-0.05,-4.24,-9.3,3.67
15:06:07.757,0.06,-0.05,-0.04,-4.75,-9.13,3.38
15:06:07.764,0.08,-0.07,-0.09,-5.58,-8.56,3.09
15:06:07.771,0.08,-0.0,-0.11,-6.93,-8.27,2.54
15:06:07.779,0.06,-0.04,0.01,-7.24,-8.59,2.29
15:06:07.786,0.09,0.03,0.11,-6.38,-8.69,1.98
15:06:07.793,0.07,0.06,0.08,-5.74,-8.37,1.58
15:06:07.800,0.08,0.05,0.02,-5.19,-8.28,0.86
15:06:07.808,0.05,0.01,-0.03,-5.37,-7.74,0.42
15:06:07.815,0.05,0.0,-0.05,-3.99,-7.31,1.91
15:06:07.822,-0.01,0.02,-0.01,-6.2,-6.68,-0.23
15:06:07.830,-0.03,0.02,-0.01,-6.29,-6.63,0.26
15:06:07.837,-0.07,0.01,0.01,-6.41,-6.57,0.62
15:06:07.844,-0.0,0.04,0.02,-6.14,-6.36,0.8
15:06:07.851,-0.05,0.03,0.04,-7.78,-6.53,0.77
15:06:07.859,-0.04,0.01,0.04,-5.21,-6.26,0.67
15:06:07.866,-0.04,0.03,0.06,-4.68,-6.3,1.13
15:06:07.873,-0.06,0.03,0.04,-4.66,-6.35,1.7
15:06:07.881,-0.05,0.01,0.01,-4.92,-6.45,1.84
15:06:07.888,-0.0,0.02,0.07,-4.26,-6.53,2.01
15:06:07.895,0.0,0.05,0.13,-3.73,-5.98,1.83
15:06:07.903,0.02,0.06,0.12,-2.94,-5.63,1.3
15:06:07.910,0.08,0.07,0.1,-2.38,-5.31,0.71
15:06:07.917,0.13,0.06,0.05,-2.36,-5.44,1.87
15:06:07.924,0.14,0.02,0.03,-2.08,-4.97,-0.98
15:06:07.932,0.19,-0.01,-0.03,-2.87,-4.7,-0.04
15:06:07.939,0.17,-0.05,-0.06,-3.66,-4.22,-3.02
15:06:07.946,0.14,-0.08,-0.05,-4.59,-3.5,-3.89
15:06:07.954,0.12,-0.08,-0.05,-5.04,-3.62,-4.8
15:06:07.961,0.15,-0.05,-0.03,-5.56,-3.54,-5.3
15:06:07.968,0.14,-0.04,0.02,-5.71,-3.77,-5.56
15:06:07.975,0.07,0.0,0.08,-5.37,-3.99,-5.68
15:06:07.983,0.04,0.02,0.11,-5.06,-4.02,-5.63
15:06:07.990,-0.01,0.02,0.13,-4.89,-4.21,-5.21
15:06:07.997,-0.08,0.03,0.11,-5.27,-4.44,-4.48
15:06:08.005,-0.12,0.02,0.13,-5.28,-4.77,-3.49
15:06:08.012,-0.16,0.02,0.17,-5.11,-5.1,-2.02
15:06:08.019,-0.22,-0.0,0.18,-4.44,-5.78,-0.58
15:06:08.026,-0.2,0.0,0.13,-3.73,-6.39,1.06
15:06:08.034,-0.18,-0.03,0.05,-3.69,-7.05,2.48
15:06:08.041,-0.19,-0.06,0.03,-3.53,-7.57,3.84
15:06:08.048,-0.17,-0.09,0.0,-3.92,-7.91,4.76
15:06:08.056,-0.11,-0.13,-0.05,-4.98,-8.39,5.49
15:06:08.063,-0.1,-0.12,-0.02,-5.77,-8.72,6.27
15:06:08.070,-0.08,-0.13,-0.0,-6.33,-9.21,6.56
15:06:08.077,0.03,-0.12,0.01,-7.08,-8.9,6.77
15:06:08.085,0.01,-0.13,0.01,-7.96,-9.15,6.41
15:06:08.092,0.03,-0.11,0.03,-8.92,-9.09,6.05
15:06:08.099,0.06,-0.1,0.05,-9.23,-8.94,5.61
15:06:08.107,0.04,-0.08,0.09,-9.43,-8.82,5.36
15:06:08.114,0.06,-0.05,0.12,-8.9,-9.04,5.41
15:06:08.121,0.04,-0.0,0.16,-8.11,-8.77,5.37
15:06:08.128,0.02,0.02,0.19,-7.06,-8.88,5.09
15:06:08.136,0.0,0.07,0.19,-6.2,-9.04,5.33
15:06:08.143,-0.01,0.05,0.14,-6.03,-8.92,5.25
15:06:08.150,-0.03,0.03,0.15,-6.06,-9.03,5.4
15:06:08.158,-0.04,-0.0,0.12,-6.49,-8.77,5.74
15:06:08.165,-0.05,-0.03,0.14,-5.92,-8.86,6.04
15:06:08.172,-0.05,-0.04,0.11,-5.82,-8.26,6.13
15:06:08.179,-0.07,-0.07,0.1,-7.81,-5.9,6.38
15:06:08.187,-0.03,-0.07,0.07,-6.12,-7.52,6.41
15:06:08.194,-0.03,-0.06,0.09,-6.72,-7.36,6.6
15:06:08.201,-0.03,-0.07,0.14,-6.55,-7.47,7.0
15:06:08.208,-0.0,-0.09,0.15,-5.57,-7.8,7.27
15:06:08.216,-0.02,-0.06,0.16,-4.72,-7.87,7.06
15:06:08.223,-0.02,-0.06,0.13,-4.27,-7.54,6.99
15:06:08.230,-0.03,-0.05,0.06,-4.6,-7.46,6.45
15:06:08.237,0.05,-0.06,0.06,-5.16,-7.34,6.54
15:06:08.245,0.06,-0.06,0.08,-5.33,-7.06,6.17
15:06:08.252,0.06,-0.02,0.12,-5.26,-6.8,6.38
15:06:08.259,0.06,-0.01,0.1,-4.63,-6.57,5.89
15:06:08.267,0.09,0.02,0.1,-4.66,-6.45,5.34
15:06:08.274,0.14,0.02,0.13,-4.02,-5.96,4.46
15:06:08.281,0.15,0.04,0.09,-4.15,-5.61,3.17
15:06:08.288,0.14,0.04,0.08,-4.58,-5.01,2.27
15:06:08.296,0.1,0.0,0.1,-4.88,-4.63,2.06
15:06:08.303,0.08,0.01,0.13,-4.47,-4.11,1.19
15:06:08.310,0.08,0.01,0.16,-4.22,-3.55,0.82
15:06:08.318,0.07,0.01,0.16,-3.78,-3.11,0.22
15:06:08.325,0.08,-0.01,0.16,-3.13,-2.5,-0.34
15:06:08.332,0.07,-0.01,0.13,-2.5,-2.05,-0.96
15:06:08.339,0.08,-0.02,0.14,-2.39,-1.67,-1.75
15:06:08.347,0.1,-0.05,0.07,-3.88,-1.57,-2.29
15:06:08.354,0.1,-0.08,0.07,-1.68,-1.24,-2.59
15:06:08.361,0.11,-0.05,0.06,-1.46,-1.11,-2.82
15:06:08.368,0.09,-0.05,0.04,-1.57,-1.31,-2.59
15:06:08.376,0.1,-0.04,0.03,-2.07,-2.18,-2.3
15:06:08.383,0.06,-0.08,0.04,-2.49,-2.79,-2.31
15:06:08.390,0.09,-0.07,0.04,-2.95,-2.78,-2.58
15:06:08.398,0.06,-0.04,0.08,-2.99,-3.27,-2.68
15:06:08.405,0.04,0.02,0.09,-2.45,-3.43,-2.46
15:06:08.412,-0.0,0.0,0.14,-1.71,-3.48,-2.26
15:06:08.419,0.02,0.04,0.17,-0.87,-3.44,-1.42
15:06:08.427,-0.0,0.03,0.13,-0.7,-3.75,-1.29
15:06:08.434,-0.0,0.02,0.05,-1.24,-3.5,-1.46
15:06:08.441,0.05,0.03,0.02,-0.11,-3.74,-1.59
15:06:08.448,0.07,-0.03,0.03,-2.48,-3.59,-1.8
15:06:08.456,0.08,-0.02,0.08,-2.37,-3.94,-2.13
15:06:08.463,0.06,-0.0,0.06,-2.4,-3.85,-2.07
15:06:08.470,0.06,-0.02,0.06,-2.62,-3.68,-2.33
15:06:08.477,0.06,-0.06,-0.02,-2.69,-3.44,-2.26
15:06:08.485,0.06,-0.08,-0.05,-3.35,-3.15,-2.55
15:06:08.492,0.01,-0.07,-0.02,-5.82,-3.1,-2.46
15:06:08.499,0.0,-0.1,-0.02,-4.3,-2.76,-2.48
15:06:08.507,-0.02,-0.09,0.02,-4.17,-2.57,-2.02
15:06:08.514,-0.05,-0.07,0.03,-4.49,-2.57,-1.94
15:06:08.521,-0.03,-0.11,0.02,-4.9,-2.85,-1.53
15:06:08.528,-0.06,-0.06,0.03,-5.34,-2.75,-1.13
15:06:08.536,-0.02,-0.08,0.02,-5.99,-2.78,-0.87
15:06:08.543,-0.01,-0.08,0.01,-6.36,-3.22,-0.4
15:06:08.550,0.02,-0.1,0.02,-6.81,-3.7,-0.52
15:06:08.557,0.02,-0.07,0.06,-6.63,-3.45,-0.67
15:06:08.565,0.07,-0.06,0.04,-6.23,-3.57,-1.27
15:06:08.572,0.12,-0.05,0.0,-6.39,-3.62,-0.04
15:06:08.579,0.16,-0.08,-0.05,-7.19,-3.28,-3.18
15:06:08.586,0.18,-0.02,0.03,-7.25,-2.92,-3.84
15:06:08.594,0.17,0.01,0.07,-6.92,-2.49,-4.56
15:06:08.601,0.13,0.01,0.1,-6.64,-2.38,-5.36
15:06:08.608,0.14,0.01,0.13,-6.34,-1.76,-5.88
15:06:08.616,0.1,0.05,0.19,-5.22,-1.73,-6.62
15:06:08.623,0.05,0.01,0.15,-4.67,-1.43,-7.07
15:06:08.630,-0.01,-0.01,0.08,-4.99,-1.12,-6.91
15:06:08.638,-0.03,-0.03,0.08,-5.18,-1.24,-6.07
15:06:08.645,-0.12,-0.06,0.05,-5.49,-1.59,-4.91
15:06:08.652,-0.14,-0.04,0.02,-6.38,-1.81,-3.63
15:06:08.660,-0.17,-0.05,0.03,-6.66,-2.63,-2.42
15:06:08.667,-0.12,-0.04,0.04,-6.63,-2.86,-1.28
15:06:08.674,-0.12,-0.03,0.04,-6.45,-3.48,-0.54
15:06:08.682,-0.07,-0.02,0.01,-6.7,-4.0,0.26
15:06:08.689,-0.04,-0.02,0.05,-6.82,-4.68,0.86
15:06:08.696,0.02,-0.02,0.06,-6.73,-4.68,1.17
15:06:08.704,0.04,-0.02,0.07,-6.73,-4.79,0.94
15:06:08.711,0.07,0.02,0.09,-6.47,-4.94,1.09
15:06:08.718,0.09,0.01,0.11,-6.27,-4.94,0.42
15:06:08.725,0.14,0.02,0.13,-6.1,-4.45,-0.73
15:06:08.733,0.13,-0.0,0.11,-5.92,-4.08,-1.87
15:06:08.740,0.15,0.0,0.11,-5.48,-3.67,-3.08
15:06:08.747,0.15,-0.01,0.11,-4.92,-3.41,-3.87
15:06:08.755,0.12,-0.0,0.11,-4.2,-2.75,-4.5
15:06:08.762,0.1,-0.01,0.1,-3.41,-2.43,-4.91
15:06:08.769,0.07,-0.04,0.12,-2.88,-2.16,-5.05
15:06:08.776,0.06,-0.03,0.09,-2.34,-1.89,-5.33
15:06:08.784,0.04,-0.02,0.07,-2.37,-1.7,-5.53
15:06:08.791,0.03,-0.04,0.07,-2.42,-1.79,-5.52
15:06:08.798,0.03,-0.05,0.07,-2.64,-2.01,-5.67
15:06:08.806,0.03,-0.05,0.08,-2.56,-2.21,-5.59
15:06:08.813,0.03,-0.05,0.05,-2.63,-2.42,-5.64
15:06:08.820,0.03,-0.06,0.06,-3.18,-2.43,-5.48
15:06:08.827,-0.01,-0.02,0.08,-3.38,-2.32,-5.73
15:06:08.835,0.0,-0.04,0.06,-3.83,-1.96,-5.66
15:06:08.842,-0.02,-0.03,0.09,-4.37,-2.37,-5.32
15:06:08.849,0.02,-0.03,0.1,-4.63,-2.13,-5.32
15:06:08.857,-0.03,-0.02,0.1,-4.92,-2.25,-5.17
15:06:08.864,-0.05,0.0,0.1,-4.41,-2.05,-5.02
15:06:08.871,-0.03,-0.03,0.06,-4.48,-2.12,-4.75
15:06:08.879,-0.05,0.01,0.07,-4.61,-2.3,-4.2
15:06:08.886,-0.05,0.02,0.1,-4.39,-2.33,-3.71
15:06:08.893,-0.07,0.03,0.09,-4.07,-2.72,-3.45
15:06:08.901,-0.02,0.01,0.06,-1.97,-2.8,-3.22
15:06:08.908,0.0,0.01,0.06,-3.89,-2.55,-3.27
15:06:08.915,0.04,0.01,0.04,-3.6,-2.87,-3.51
15:06:08.922,0.05,0.01,0.04,-3.76,-2.7,-3.75
15:06:08.930,0.08,-0.03,0.02,-3.32,-2.34,-4.57
15:06:08.937,0.08,-0.02,0.03,-3.24,-2.34,-5.12
15:06:08.944,0.08,-0.04,0.03,-3.47,-1.66,-5.51
15:06:08.952,0.07,-0.06,0.02,-1.99,-1.47,-6.01
15:06:08.959,0.06,-0.06,0.05,-4.17,-1.41,-6.43
15:06:08.966,0.06,-0.05,0.08,-4.11,-1.21,-6.75
15:06:08.973,0.05,-0.07,0.09,-3.93,-1.21,-6.6
15:06:08.981,0.04,-0.07,0.06,-3.82,-0.98,-7.29
15:06:08.988,0.02,-0.06,0.07,-4.09,-0.64,-5.9
15:06:08.995,0.03,-0.05,0.08,-4.35,-0.56,-8.2
15:06:09.003,0.02,-0.05,0.08,-5.12,-0.39,-8.29
15:06:09.010,0.01,-0.04,0.12,-5.3,-0.47,-8.42
15:06:09.017,-0.0,-0.02,0.13,-5.39,-0.53,-8.47
15:06:09.024,-0.01,-0.02,0.15,-4.94,-0.45,-8.61
15:06:09.032,-0.02,0.02,0.13,-4.47,-0.78,-8.42
15:06:09.039,-0.02,0.02,0.13,-4.15,-0.63,-8.46
15:06:09.046,-0.04,-0.01,0.1,-3.91,-0.74,-8.3
15:06:09.054,-0.03,0.0,0.06,-4.06,-0.5,-8.05
15:06:09.061,-0.06,-0.01,0.07,-4.34,-0.66,-7.74
15:06:09.068,-0.06,-0.01,0.05,-4.71,-0.99,-7.25
15:06:09.075,-0.07,-0.01,0.06,-4.92,-1.28,-6.97
15:06:09.083,-0.07,-0.01,0.07,-4.79,-1.44,-6.46
15:06:09.090,-0.04,0.01,0.08,-4.49,-1.72,-5.97
15:06:09.097,-0.07,0.01,0.06,-4.5,-0.05,-5.65
15:06:09.105,-0.07,0.0,0.03,-4.43,-2.44,-5.14
15:06:09.112,-0.06,-0.04,0.04,-4.72,-2.72,-4.41
15:06:09.119,-0.08,-0.02,0.04,-5.01,-3.07,-3.78
15:06:09.126,-0.13,-0.03,0.04,-4.87,-3.24,-2.87
15:06:09.134,-0.13,-0.04,0.06,-4.62,-3.23,-2.69
15:06:09.141,-0.11,-0.03,0.06,-4.62,-3.54,-3.85
15:06:09.148,-0.11,-0.05,0.03,-4.85,-3.52,-1.38
15:06:09.155,-0.1,-0.05,0.05,-5.02,-3.35,-1.17
15:06:09.163,-0.12,-0.04,0.06,-5.49,-3.62,-0.65
15:06:09.170,-0.11,-0.06,0.07,-5.66,-3.67,-0.07
15:06:09.177,-0.1,-0.04,0.09,-6.02,-3.76,0.41
15:06:09.185,-0.07,-0.03,0.11,-6.47,-3.82,0.52
15:06:09.192,-0.07,-0.02,0.15,-6.4,-4.13,0.32
15:06:09.199,-0.05,-0.02,0.14,-6.42,-3.9,0.4
15:06:09.206,-0.05,-0.01,0.12,-6.44,-4.11,0.35
15:06:09.214,-0.02,0.01,0.09,-6.37,-3.72,0.22
15:06:09.221,-0.02,-0.03,0.07,-6.27,-3.7,0.1
15:06:09.228,-0.01,-0.03,0.05,-6.23,-3.38,0.07
15:06:09.235,-0.0,-0.05,0.03,-5.93,-3.42,-0.43
15:06:09.243,0.01,-0.05,0.02,-5.78,-3.31,-0.69
15:06:09.250,0.01,-0.06,0.04,-5.45,-3.13,-0.99
15:06:09.257,0.0,-0.05,0.07,-5.5,-2.96,-0.78
15:06:09.265,-0.04,-0.04,0.07,-4.85,-2.82,-0.63
15:06:09.272,-0.09,-0.03,0.08,-4.92,-3.02,-0.07
15:06:09.279,-0.11,-0.04,0.09,-5.07,-3.41,0.64
15:06:09.286,-0.14,-0.07,0.11,-5.19,-3.75,1.25
15:06:09.294,-0.17,-0.1,0.08,-5.57,-3.92,1.99
15:06:09.301,-0.15,-0.09,0.08,-5.84,-4.25,2.87
15:06:09.308,-0.14,-0.08,0.09,-5.98,-4.17,3.51
15:06:09.316,-0.15,-0.09,0.08,-6.0,-4.56,4.2
15:06:09.323,-0.11,-0.07,0.11,-5.79,-4.63,4.58
15:06:09.330,-0.08,-0.08,0.08,-5.79,-4.49,4.71
15:06:09.337,-0.04,-0.06,0.07,-6.02,-4.65,4.69
15:06:09.345,-0.01,-0.05,0.09,-6.07,-4.67,4.46
15:06:09.352,0.0,-0.03,0.11,-5.93,-4.6,4.29
15:06:09.359,0.02,-0.03,0.12,-5.92,-4.67,4.0
15:06:09.367,0.04,-0.02,0.11,-5.76,-4.69,3.71
15:06:09.374,0.04,-0.02,0.1,-5.47,-4.59,3.47
15:06:09.381,0.04,-0.02,0.08,-5.72,-4.45,2.96
15:06:09.388,0.03,-0.02,0.08,-5.83,-4.15,2.37
15:06:09.396,0.01,-0.01,0.12,-5.63,-4.31,2.54
15:06:09.403,-0.0,-0.01,0.11,-5.13,-4.01,2.51
15:06:09.410,-0.02,-0.02,0.11,-4.88,-4.27,2.67
15:06:09.417,-0.02,-0.02,0.09,-5.06,-4.23,2.54
15:06:09.425,-0.04,-0.04,0.09,-4.99,-4.42,2.77
15:06:09.432,-0.03,-0.04,0.09,-4.94,-4.5,3.05
15:06:09.439,-0.05,-0.04,0.09,-4.76,-4.53,3.5
15:06:09.447,-0.06,-0.03,0.06,-4.6,-4.92,3.94
15:06:09.454,-0.05,-0.04,0.06,-4.73,-5.03,4.49
15:06:09.461,-0.05,-0.05,0.07,-4.79,-5.44,4.66
15:06:09.468,-0.07,-0.06,0.09,-4.55,-5.57,5.13
15:06:09.476,-0.06,-0.05,0.07,-4.45,-5.66,5.61
15:06:09.483,-0.05,-0.05,0.05,-4.5,-5.6,5.74
15:06:09.490,-0.04,-0.05,0.06,-4.54,-5.65,5.9
15:06:09.497,-0.02,-0.04,0.07,-4.7,-5.59,6.06
15:06:09.505,-0.01,-0.02,0.09,-4.79,-5.67,5.92
15:06:09.512,-0.03,-0.03,0.1,-4.61,-5.57,5.97
15:06:09.519,-0.01,-0.03,0.08,-4.77,-5.66,6.06
15:06:09.527,-0.02,-0.03,0.08,-5.1,-5.57,6.28
15:06:09.534,-0.03,-0.03,0.1,-5.08,-5.79,6.19
15:06:09.541,-0.03,-0.02,0.11,-4.79,-5.72,6.54
15:06:09.548,-0.06,-0.01,0.09,-4.76,-5.39,6.53
15:06:09.556,-0.05,-0.02,0.07,-4.95,-5.4,6.67
15:06:09.563,-0.04,-0.02,0.07,-4.86,-5.28,6.8
15:06:09.570,-0.04,-0.03,0.07,-4.89,-5.21,6.93
15:06:09.577,-0.06,-0.04,0.08,-4.81,-5.18,7.13
15:06:09.585,-0.05,-0.02,0.07,-4.87,-5.26,7.49
15:06:09.592,-0.05,-0.02,0.08,-4.82,-5.34,7.92
15:06:09.599,-0.04,-0.02,0.09,-4.89,-5.11,8.01
15:06:09.607,-0.06,-0.02,0.1,-4.88,-5.25,8.19
15:06:09.614,-0.04,-0.02,0.11,-5.18,-5.01,8.24
15:06:09.621,-0.04,-0.02,0.12,-5.1,-5.06,8.19
15:06:09.628,-0.02,-0.01,0.14,-4.98,-5.15,8.03
15:06:09.636,-0.04,-0.02,0.13,-5.11,-4.89,8.31
15:06:09.643,-0.01,-0.03,0.14,-4.86,-4.66,8.69
15:06:09.651,-0.03,-0.03,0.14,-4.69,-4.5,8.28
15:06:09.658,-0.02,-0.04,0.16,-4.61,-4.15,8.19
15:06:09.665,0.0,-0.05,0.15,-4.44,-4.11,8.09
15:06:09.672,0.02,-0.06,0.12,-4.91,-3.82,9.64
15:06:09.680,0.04,-0.06,0.13,-4.93,-3.85,7.37
15:06:09.687,0.08,-0.08,0.15,-4.91,-3.73,6.65
15:06:09.694,0.08,-0.07,0.12,-4.8,-3.15,5.96
15:06:09.702,0.07,-0.07,0.13,-4.76,-2.92,5.51
15:06:09.709,0.07,-0.05,0.13,-4.56,-2.44,4.96
15:06:09.716,0.07,-0.07,0.14,-4.49,-1.82,4.21
15:06:09.723,0.06,-0.04,0.16,-4.34,-1.54,5.8
15:06:09.731,0.04,-0.05,0.2,-4.44,-1.23,3.56
15:06:09.738,0.03,-0.06,0.22,-4.18,-1.01,1.96
15:06:09.745,0.01,-0.07,0.2,-4.15,-1.13,3.79
15:06:09.752,-0.03,-0.08,0.19,-4.54,-1.17,3.96
15:06:09.760,-0.01,-0.1,0.17,-4.81,-1.43,3.86
15:06:09.767,0.01,-0.13,0.13,-5.11,-1.65,1.96
15:06:09.774,0.04,-0.1,0.08,-5.16,-0.11,3.54
15:06:09.782,0.05,-0.09,0.1,-5.55,-2.24,3.45
15:06:09.789,0.07,-0.09,0.09,-5.79,-2.03,3.22
15:06:09.796,0.08,-0.07,0.1,-5.57,-2.1,3.31
15:06:09.804,0.08,-0.05,0.1,-5.59,-1.91,2.85
15:06:09.811,0.1,-0.05,0.12,-5.69,-1.43,2.34
15:06:09.818,0.08,-0.03,0.14,-5.53,-1.12,2.06
15:06:09.825,0.07,-0.03,0.17,-5.44,-0.5,1.51
15:06:09.833,0.06,-0.04,0.18,-5.37,-0.18,1.05
15:06:09.840,0.06,-0.03,0.19,-5.02,-0.17,0.58
15:06:09.847,0.07,-0.05,0.19,-4.89,-0.1,0.25
15:06:09.855,0.07,-0.05,0.2,-4.81,0.12,-0.33
15:06:09.862,0.05,-0.06,0.2,-4.56,-0.18,-0.2
15:06:09.869,0.04,-0.07,0.18,-4.73,-0.2,-0.18
15:06:09.876,0.03,-0.08,0.16,-4.59,-0.34,-0.22
15:06:09.884,0.03,-0.09,0.13,-4.6,-0.52,-0.17
15:06:09.891,0.01,-0.1,0.13,-4.95,-0.79,1.83
15:06:09.898,0.01,-0.08,0.13,-4.83,-0.82,1.9
15:06:09.906,0.01,-0.08,0.12,-4.9,-0.48,-1.94
15:06:09.913,0.01,-0.07,0.12,-4.71,-0.63,1.93
15:06:09.920,0.04,-0.05,0.13,-4.79,-0.52,1.87
15:06:09.927,0.03,-0.04,0.14,-4.66,-0.39,-0.16
15:06:09.935,0.03,-0.04,0.14,-4.88,-0.34,-0.28
15:06:09.942,0.04,-0.04,0.14,-4.6,-0.34,-0.74
15:06:09.949,0.04,-0.03,0.14,-4.54,-0.41,-0.97
15:06:09.957,0.05,-0.03,0.16,-4.33,-0.34,-0.92
15:06:09.964,0.04,-0.03,0.14,-4.22,-0.36,-1.07
15:06:09.971,0.05,-0.03,0.13,-4.21,-0.12,-1.35
15:06:09.978,0.03,-0.04,0.12,-4.31,-0.01,-1.29
15:06:09.986,0.0,-0.04,0.12,-4.43,0.1,-1.08
15:06:09.993,-0.03,-0.05,0.13,-4.5,-0.18,-0.97
15:06:10.000,-0.01,-0.05,0.13,-4.43,-0.14,-0.78
15:06:10.007,-0.01,-0.05,0.14,-4.38,-0.28,-0.83
15:06:10.015,-0.02,-0.05,0.13,-4.58,-0.59,-0.68
15:06:10.022,-0.03,-0.05,0.14,-4.6,-0.63,-0.42
15:06:10.029,-0.02,-0.05,0.15,-4.47,-0.22,-0.17
15:06:10.037,-0.01,-0.05,0.15,-4.55,-0.37,0.01
15:06:10.044,-0.01,-0.06,0.15,-4.37,-0.45,0.16
15:06:10.051,0.0,-0.06,0.16,-4.44,-0.41,0.16
15:06:10.058,-0.0,-0.06,0.14,-4.45,-0.24,-1.95
15:06:10.066,0.03,-0.07,0.16,-4.39,-0.31,-0.23
15:06:10.073,0.03,-0.06,0.14,-4.51,-1.9,-0.53
15:06:10.080,0.03,-0.06,0.14,-4.4,-0.27,-0.53
15:06:10.088,0.02,-0.07,0.15,-4.42,-1.97,-0.57
15:06:10.095,0.01,-0.06,0.14,-4.31,-0.31,-0.49
15:06:10.102,0.0,-0.06,0.15,-4.66,-0.09,-0.49
15:06:10.109,-0.01,-0.05,0.13,-4.4,0.08,-0.26
15:06:10.117,-0.01,-0.05,0.13,-4.4,-0.08,1.87
15:06:10.124,-0.03,-0.05,0.14,-4.47,0.06,1.93
15:06:10.131,-0.03,-0.05,0.15,-4.67,0.28,0.13
15:06:10.141,-0.02,-0.05,0.16,-4.43,1.86,0.33
15:06:10.149,-0.02,-0.05,0.16,-4.66,-0.15,0.58
15:06:10.156,-0.01,-0.06,0.16,-4.57,-0.12,0.61
15:06:10.163,-0.0,-0.07,0.16,-4.47,-0.45,0.9
15:06:10.171,0.01,-0.05,0.16,-4.58,-0.29,0.9
15:06:10.178,0.01,-0.07,0.16,-4.71,-0.48,0.89
15:06:10.185,0.02,-0.05,0.14,-4.56,-0.7,1.07
15:06:10.192,0.03,-0.06,0.16,-4.66,-0.7,1.11
15:06:10.200,0.02,-0.06,0.15,-4.61,-0.6,0.99
15:06:10.207,0.01,-0.07,0.14,-4.73,-0.48,0.74
15:06:10.214,0.02,-0.06,0.14,-4.59,-0.47,0.56
15:06:10.222,0.01,-0.07,0.14,-4.56,-0.28,0.57
15:06:10.229,0.01,-0.06,0.14,-4.59,-0.15,0.44
15:06:10.236,0.02,-0.07,0.15,-4.28,-0.05,0.27
15:06:10.244,0.02,-0.07,0.14,-4.47,-0.08,0.32
15:06:10.251,0.01,-0.06,0.14,-4.53,-0.08,0.32
15:06:10.258,0.02,-0.05,0.12,-4.6,-0.07,0.09
15:06:10.265,0.03,-0.04,0.13,-4.46,0.08,0.05
15:06:10.273,0.02,-0.05,0.12,-4.53,0.05,-1.93
15:06:10.280,0.03,-0.04,0.12,-4.52,0.02,-0.04
15:06:10.287,0.02,-0.04,0.11,-4.58,-0.0,0.07
15:06:10.295,0.02,-0.04,0.12,-4.44,-0.22,-0.16
15:06:10.302,0.02,-0.04,0.12,-4.35,-0.15,-0.17
15:06:10.309,0.02,-0.04,0.11,-4.56,0.02,-0.38
15:06:10.316,0.03,-0.04,0.11,-4.33,-0.12,-0.59
15:06:10.324,0.03,-0.04,0.11,-4.49,0.1,-0.82
15:06:10.331,0.03,-0.04,0.09,-4.43,0.24,-0.91
15:06:10.338,0.04,-0.04,0.09,-4.39,0.43,-0.85
15:06:10.346,0.05,-0.04,0.08,-4.4,0.9,-1.45
15:06:10.353,0.06,-0.03,0.08,-4.46,0.95,-1.54
15:06:10.360,0.05,-0.04,0.08,-4.34,0.81,-1.94
15:06:10.367,0.07,-0.02,0.07,-4.36,0.96,-2.21
15:06:10.375,0.05,-0.03,0.06,-4.15,0.93,-2.26
15:06:10.382,0.03,-0.02,0.07,-4.27,0.59,-1.78
15:06:10.389,0.02,-0.03,0.07,-4.44,0.62,-1.78
15:06:10.396,0.01,-0.03,0.07,-4.46,0.54,-2.07
15:06:10.404,0.01,-0.02,0.07,-4.36,0.56,-1.92
15:06:10.411,0.01,-0.01,0.06,-4.27,0.49,-1.71
15:06:10.418,0.02,-0.02,0.06,-4.35,0.51,-2.08
15:06:10.426,0.02,-0.02,0.06,-4.15,0.64,-0.05
15:06:10.433,0.04,-0.03,0.07,-4.34,0.93,-2.17
15:06:10.440,0.04,-0.03,0.05,-4.11,1.13,-2.62
15:06:10.447,0.05,-0.02,0.05,-4.11,1.2,-2.81
15:06:10.455,0.06,-0.02,0.04,-3.91,1.32,-3.18
15:06:10.462,0.06,-0.02,0.03,-1.97,1.11,-3.31
15:06:10.469,0.06,-0.02,0.03,-3.94,1.16,-3.51
15:06:10.477,0.04,-0.01,0.02,-4.09,1.21,-3.26
15:06:10.484,0.03,-0.01,0.03,-4.27,0.92,-3.2
15:06:10.491,0.01,-0.01,0.04,-4.5,0.58,-2.75
15:06:10.498,-0.01,-0.01,0.03,-4.49,0.21,-2.44
15:06:10.506,-0.01,-0.01,0.03,-4.4,-0.02,-1.94
15:06:10.513,-0.03,-0.01,0.04,-4.34,-0.36,-1.79
15:06:10.520,-0.05,-0.01,0.02,-4.36,-0.78,-1.36
15:06:10.528,-0.05,0.01,0.04,-4.4,-0.42,-1.52
15:06:10.535,-0.08,-0.01,0.06,-4.32,0.11,-1.47
15:06:10.542,-0.06,-0.01,0.03,-4.08,0.14,-0.78
15:06:10.549,-0.08,-0.0,0.0,-4.4,0.14,0.09
15:06:10.557,-0.05,-0.0,0.03,-4.63,0.3,0.39
15:06:10.564,-0.05,-0.03,0.04,-4.44,0.31,0.58
15:06:10.571,-0.03,-0.03,0.01,-4.2,0.12,0.96
15:06:10.578,0.01,0.01,-0.01,-4.47,-0.16,0.8
15:06:10.586,0.05,0.01,0.01,-4.79,-0.34,0.52
15:06:10.593,0.04,0.02,0.02,-4.78,-0.3,0.1
15:06:10.600,0.03,0.01,0.03,-4.5,-0.33,-0.25
15:06:10.608,0.04,0.0,0.0,-4.11,0.15,-0.17
15:06:10.615,0.02,-0.0,-0.0,-4.37,0.2,-0.1
15:06:10.622,0.05,0.01,-0.01,-4.54,0.29,-0.53
15:06:10.629,0.04,0.01,0.01,-4.43,0.56,-0.94
15:06:10.637,0.05,0.01,-0.0,-4.2,1.11,-1.33
15:06:10.644,0.05,0.01,0.0,-4.02,1.21,-1.71
15:06:10.652,0.04,0.01,-0.01,-4.05,1.51,-2.03
15:06:10.659,0.03,0.01,0.0,-4.1,1.24,-2.09
15:06:10.666,0.05,0.0,0.03,-4.2,1.46,-2.34
15:06:10.674,0.04,-0.0,0.03,-3.97,1.51,-2.55
15:06:10.681,0.03,0.01,0.01,-3.98,1.5,-2.37
15:06:10.688,0.04,0.0,0.01,-4.08,1.5,-2.62
15:06:10.695,0.03,-0.0,0.02,-1.96,1.43,-2.6
15:06:10.703,0.03,-0.01,0.02,-4.02,1.53,-2.88
15:06:10.710,0.03,-0.0,0.03,-3.86,1.4,-3.11
15:06:10.717,0.03,-0.01,0.0,-4.05,1.57,-3.22
15:06:10.725,0.03,-0.01,-0.01,-4.18,1.37,-3.13
15:06:10.732,0.01,-0.01,0.01,-4.18,1.38,-2.98
15:06:10.739,0.01,-0.0,0.01,-4.0,1.38,-3.17
15:06:10.747,0.01,-0.0,0.01,-4.01,1.17,-2.94
15:06:10.754,0.02,0.0,-0.0,-4.01,1.34,-2.99
15:06:10.761,0.01,0.01,-0.01,-4.11,1.22,-2.89
15:06:10.768,0.01,0.0,-0.0,-4.11,1.32,-3.15
15:06:10.776,0.02,0.01,-0.0,-4.18,1.3,-3.07
15:06:10.783,0.01,0.0,0.0,-3.89,1.35,-3.07
15:06:10.790,0.01,0.02,0.01,-4.04,1.2,-3.04
15:06:10.798,0.01,0.01,0.0,-5.81,1.1,-3.17
15:06:10.805,-0.01,0.02,0.0,-3.88,1.27,-3.07
15:06:10.812,-0.0,0.01,0.01,-4.06,1.49,-3.18
15:06:10.819,-0.02,-0.0,0.0,-3.94,1.43,-3.08
15:06:10.827,-0.02,0.02,-0.0,-5.85,1.22,-2.87
15:06:10.834,-0.03,0.0,0.0,-4.02,1.46,-2.92
15:06:10.841,-0.03,-0.0,0.0,-4.22,1.28,-2.48
15:06:10.849,-0.04,-0.01,0.0,-4.06,1.22,-2.34
15:06:10.856,-0.03,-0.0,0.01,-4.19,1.19,-3.93
15:06:10.863,-0.03,-0.0,-0.01,-4.24,1.24,-1.93
15:06:10.870,-0.04,-0.0,-0.01,-4.05,1.23,-1.84
15:06:10.878,-0.03,-0.0,0.0,-4.06,1.05,-1.68
15:06:10.885,-0.03,0.0,0.01,-3.89,1.32,-1.75
15:06:10.892,-0.02,0.01,-0.02,-4.01,1.18,-1.58
15:06:10.899,-0.02,0.0,-0.02,-4.34,1.03,-1.49
15:06:10.907,-0.02,-0.0,-0.01,-4.2,0.97,-1.33
15:06:10.914,-0.01,0.01,-0.0,-4.35,1.03,-1.37
15:06:10.921,-0.02,0.01,0.01,-4.24,0.99,-1.25
15:06:10.929,-0.02,0.0,-0.01,-4.18,0.69,-1.33
15:06:10.936,0.06,-0.05,0.18,-2.57,-1.58,0.66
15:06:10.943,-0.06,0.54,-0.49,-2.27,0.77,-1.35
15:06:10.950,-0.23,0.3,-0.09,-2.26,0.42,-0.34
15:06:10.958,-0.15,0.05,-0.11,-4.79,0.55,-1.07
15:06:10.965,0.09,0.04,0.01,-4.44,0.63,-0.33
15:06:10.972,-0.13,0.01,0.03,-4.13,0.33,0.28
15:06:10.980,-0.06,-0.05,-0.03,-4.13,0.04,0.25
15:06:10.987,0.01,-0.0,-0.01,-4.37,0.09,0.84
15:06:10.994,-0.05,0.04,-0.02,-4.34,0.36,0.54
15:06:11.001,-0.02,0.03,0.02,-4.35,0.21,0.72
15:06:11.009,-0.05,-0.0,-0.0,-4.31,0.37,0.78
15:06:11.016,-0.01,-0.0,-0.03,-4.22,0.22,0.72
15:06:11.023,0.0,-0.0,-0.01,-4.31,0.07,0.73
15:06:11.030,0.0,-0.0,0.01,-4.24,0.16,0.62
15:06:11.038,0.03,-0.02,-0.01,-4.31,0.34,0.61
15:06:11.045,0.01,-0.0,-0.01,-4.49,0.4,0.54
15:06:11.052,0.01,0.02,-0.01,-4.3,0.34,0.33
15:06:11.060,0.0,-0.0,-0.02,-4.71,0.21,0.19
15:06:11.067,0.01,0.01,-0.0,-4.28,0.27,0.22
15:06:11.074,0.01,0.0,-0.04,-4.51,0.2,0.21
15:06:11.082,-0.01,0.01,-0.04,-4.34,0.35,0.27
15:06:11.089,-0.01,0.03,-0.01,-4.45,0.16,0.36
15:06:11.096,-0.02,-0.0,-0.04,-4.44,-1.95,0.42
15:06:11.103,-0.01,0.02,-0.03,-4.27,-0.02,0.61
15:06:11.111,-0.02,0.03,-0.03,-4.34,-0.12,0.65
15:06:11.118,-0.02,0.01,0.0,-4.33,-0.31,0.77
15:06:11.125,-0.0,0.01,-0.03,-4.41,-1.97,0.98
15:06:11.133,-0.02,0.01,-0.02,-4.36,-0.03,1.02
15:06:11.140,-0.04,0.02,-0.01,-4.53,-0.27,1.12
15:06:11.147,-0.02,0.02,-0.04,-4.63,-0.36,1.32
15:06:11.154,-0.01,0.04,-0.05,-4.87,-0.31,1.54
15:06:11.162,-0.02,0.02,-0.07,-4.85,-0.46,1.61
15:06:11.169,-0.01,0.01,-0.06,-4.53,-0.6,1.6
15:06:11.176,-0.04,0.01,-0.03,-4.73,-0.92,1.52
15:06:11.184,-0.01,0.02,-0.04,-4.8,-0.74,1.76
15:06:11.191,-0.01,0.03,-0.07,-4.69,-0.76,2.01
15:06:11.198,0.0,0.02,-0.08,-4.79,-0.74,2.03
15:06:11.205,-0.0,0.0,-0.06,-4.63,-0.88,2.06
15:06:11.213,0.03,0.02,-0.06,-4.69,-1.18,2.22
15:06:11.220,0.02,0.03,-0.05,-4.77,-0.95,1.88
15:06:11.227,0.01,0.03,-0.05,-4.75,-0.73,1.84
15:06:11.235,-0.01,0.05,-0.02,-4.5,-0.74,1.41
15:06:11.242,-0.0,0.02,-0.04,-4.58,-0.67,1.5
15:06:11.249,-0.01,0.01,-0.05,-4.57,-0.56,1.56
15:06:11.256,0.0,0.03,-0.06,-4.44,-0.24,1.45
15:06:11.264,-0.02,0.01,-0.03,-4.42,-0.11,1.47
15:06:11.271,-0.0,0.01,-0.04,-4.68,1.83,1.35
15:06:11.278,0.01,0.01,-0.04,-4.63,0.05,1.3
15:06:11.285,0.02,0.01,-0.04,-4.14,-1.94,1.17
15:06:11.293,-0.0,0.02,-0.02,-4.57,0.13,0.8
15:06:11.300,0.03,0.01,-0.04,-4.47,0.44,0.45
15:06:11.307,0.03,0.02,-0.03,-4.16,0.5,0.41
15:06:11.315,0.02,0.03,-0.04,-4.29,0.51,0.32
15:06:11.322,0.03,0.02,-0.04,-4.2,0.36,0.13
15:06:11.329,0.04,0.02,-0.05,-4.38,0.57,-0.09
15:06:11.336,0.03,0.0,-0.06,-4.4,0.48,-0.15
15:06:11.344,0.03,0.03,-0.06,-4.56,0.59,-0.36
15:06:11.351,0.01,0.04,-0.05,-4.4,0.34,-0.49
15:06:11.358,0.01,0.0,-0.05,-4.5,0.37,-0.46
15:06:11.366,0.01,0.01,-0.06,-4.34,0.3,-0.41
15:06:11.373,0.02,0.03,-0.04,-4.33,0.43,-0.87
15:06:11.380,0.03,0.02,-0.03,-4.67,0.36,-0.61
15:06:11.387,0.03,0.01,-0.04,-4.47,0.39,-0.81
15:06:11.395,0.03,0.01,-0.04,-4.4,0.62,-1.01
15:06:11.402,0.03,0.03,-0.04,-4.44,0.59,-0.99
15:06:11.409,0.03,0.02,-0.06,-4.39,0.26,-1.0
15:06:11.417,0.03,0.01,-0.04,-4.21,0.17,-1.18
15:06:11.424,0.03,0.02,-0.05,-4.54,0.07,-1.42
15:06:11.431,0.02,0.03,-0.05,-4.34,0.27,-1.26
15:06:11.439,0.01,0.04,-0.03,-4.34,0.25,-1.28
15:06:11.446,0.01,0.02,-0.05,-4.34,0.18,-1.49
15:06:11.453,0.0,0.01,-0.04,-4.48,0.37,-1.67
15:06:11.461,0.01,0.02,-0.05,-4.31,0.56,-1.58
15:06:11.468,0.0,0.03,-0.02,-4.28,0.42,-1.93
15:06:11.475,0.0,0.02,-0.04,-4.19,0.44,-1.79
15:06:11.482,0.0,0.01,-0.03,-4.39,0.59,-1.61
15:06:11.490,-0.03,0.03,-0.04,-4.21,0.05,-1.34
15:06:11.497,-0.04,0.02,-0.03,-4.31,0.15,-1.31
15:06:11.504,-0.02,0.01,-0.03,-4.37,0.19,-1.08
15:06:11.512,-0.02,0.01,-0.04,-4.47,0.19,-0.74
15:06:11.519,-0.03,0.03,-0.05,-4.39,-1.97,-1.02
15:06:11.526,-0.06,0.03,-0.02,-4.38,-0.38,-0.52
15:06:11.534,-0.07,0.02,-0.03,-4.43,-0.37,0.15
15:06:11.541,-0.06,0.01,-0.04,-4.47,-0.35,0.49
15:06:11.548,-0.06,0.01,-0.03,-4.53,-0.17,0.55
15:06:11.555,-0.06,0.02,-0.03,-4.44,-0.28,1.04
15:06:11.563,-0.06,0.01,-0.05,-4.69,-0.63,1.32
15:06:11.570,-0.05,0.01,-0.05,-4.39,-0.79,1.42
15:06:11.577,-0.06,0.02,-0.03,-4.63,-0.73,1.83
15:06:11.584,-0.06,0.03,-0.03,-4.75,-0.73,3.87
15:06:11.592,-0.04,0.02,-0.03,-4.71,-0.96,2.35
15:06:11.599,-0.04,0.01,-0.03,-4.7,-1.09,2.4
15:06:11.606,-0.03,0.01,-0.03,-4.66,-1.03,2.51
15:06:11.614,-0.04,0.02,-0.02,-4.68,-1.22,2.71
15:06:11.621,-0.05,0.02,-0.03,-4.58,-1.32,3.13
15:06:11.628,-0.05,0.01,-0.03,-4.76,-1.37,3.64
15:06:11.635,-0.05,0.01,-0.04,-4.73,-1.5,3.75
15:06:11.643,-0.05,0.02,-0.03,-4.98,-1.51,4.04
15:06:11.650,-0.06,0.02,-0.02,-4.9,-1.66,4.33
15:06:11.658,-0.05,0.0,-0.02,-5.0,-3.92,4.61
15:06:11.665,-0.05,0.01,-0.03,-4.88,-1.86,4.82
15:06:11.672,-0.04,0.02,-0.02,-5.01,-1.99,5.11
15:06:11.680,-0.04,0.01,0.0,-4.83,-3.85,5.24
15:06:11.687,-0.03,0.01,-0.02,-4.98,-2.0,5.25
15:06:11.694,-0.04,-0.0,-0.01,-5.05,-2.2,5.69
15:06:11.702,-0.02,0.02,-0.02,-4.87,-2.49,5.42
15:06:11.709,-0.01,0.02,0.0,-5.19,-2.52,5.65
15:06:11.716,-0.01,0.0,-0.01,-5.25,-2.48,5.93
15:06:11.723,-0.01,0.01,-0.02,-5.09,-2.51,5.93
15:06:11.731,-0.01,0.01,-0.02,-4.87,-2.41,5.78
15:06:11.738,-0.0,0.02,-0.01,-5.01,-2.61,6.14
15:06:11.745,0.0,0.01,-0.01,-5.13,-2.58,5.89
15:06:11.753,0.01,0.0,-0.01,-5.04,-2.66,3.9
15:06:11.760,-0.01,0.01,-0.02,-5.01,-2.68,5.87
15:06:11.767,0.01,0.01,-0.01,-5.03,-2.46,5.87
15:06:11.774,0.01,0.01,-0.01,-5.09,-2.63,5.95
15:06:11.782,0.01,-0.0,-0.01,-5.1,-2.34,5.81
15:06:11.789,0.01,0.01,-0.01,-5.23,-2.52,5.84
15:06:11.796,0.01,-0.01,0.01,-5.12,-2.44,5.77
15:06:11.804,0.02,0.01,0.0,-5.13,-2.25,5.57
15:06:11.811,0.04,-0.0,-0.0,-5.02,-2.24,5.51
15:06:11.818,0.03,0.02,0.01,-5.05,-1.87,5.16
15:06:11.826,0.04,0.01,0.0,-5.17,-1.82,4.75
15:06:11.833,0.05,-0.01,0.0,-5.08,-1.57,4.38
15:06:11.840,0.05,0.0,0.01,-4.98,-1.53,4.4
15:06:11.847,0.05,0.01,-0.02,-4.76,-1.19,3.86
15:06:11.855,0.04,-0.01,0.01,-5.01,-1.19,3.63
15:06:11.862,0.06,-0.01,0.01,-4.79,-0.98,3.19
15:06:11.869,0.06,0.0,0.01,-4.79,-0.9,2.98
15:06:11.876,0.04,-0.01,0.01,-4.75,-0.79,2.59
15:06:11.884,0.04,-0.0,0.0,-4.53,-0.89,2.49
15:06:11.891,0.03,-0.0,-0.01,-4.84,-0.85,2.36
15:06:11.898,0.04,-0.01,-0.0,-4.7,-0.63,2.62
15:06:11.905,0.01,-0.01,0.01,-4.96,-0.62,2.68
15:06:11.913,0.01,0.01,0.02,-4.62,-0.79,2.68
15:06:11.920,-0.0,-0.0,0.0,-4.69,-0.97,2.72
15:06:11.927,0.01,-0.0,0.01,-4.87,-0.8,2.91
15:06:11.935,0.0,0.0,0.0,-4.86,-1.03,2.91
15:06:11.942,0.02,-0.0,0.01,-4.78,-1.05,3.12
15:06:11.949,-0.01,-0.0,0.01,-4.67,-1.27,2.96
15:06:11.956,0.0,-0.0,0.01,-4.85,-1.15,3.38
15:06:11.964,-0.0,-0.01,0.0,-4.82,-1.34,3.66
15:06:11.971,0.01,0.0,0.01,-4.86,-1.56,3.46
15:06:11.978,0.01,-0.01,0.01,-4.95,-1.56,3.56
15:06:11.986,0.01,-0.01,0.0,-4.9,-1.6,3.67
15:06:11.993,0.0,-0.0,-0.0,-5.08,-1.63,3.71
15:06:12.000,0.02,-0.0,0.01,-4.84,-1.72,3.67
15:06:12.007,0.02,-0.0,0.0,-4.92,-1.66,3.9
15:06:12.015,0.01,-0.0,0.01,-4.94,-1.62,3.66
15:06:12.022,0.03,-0.0,0.0,-5.0,-1.82,3.6
15:06:12.029,0.03,0.01,0.01,-4.86,-1.46,3.48
15:06:12.037,0.04,0.0,0.01,-4.86,-1.46,3.34
15:06:12.044,0.03,0.01,0.01,-5.0,-1.5,3.1
15:06:12.051,0.03,0.01,-0.0,-4.76,-1.31,2.93
15:06:12.058,0.03,0.01,0.0,-4.98,-1.31,2.84
15:06:12.066,0.04,0.0,0.01,-4.83,-1.17,2.67
15:06:12.073,0.05,0.0,0.01,-4.76,-1.12,2.57
15:06:12.080,0.03,-0.0,0.0,-4.77,-0.81,2.4
15:06:12.088,0.04,0.0,0.03,-4.95,-0.81,2.2
15:06:12.095,0.04,-0.01,0.01,-4.75,-0.67,2.06
15:06:12.102,0.04,-0.0,0.01,-4.79,-0.79,1.87
15:06:12.109,0.04,0.0,0.02,-4.65,-0.96,1.74
15:06:12.117,0.04,-0.01,0.01,-4.75,-0.76,1.61
15:06:12.124,0.05,-0.01,0.0,-4.86,-0.81,1.57
15:06:12.131,0.05,-0.01,-0.01,-4.65,-0.55,1.42
15:06:12.138,0.05,-0.01,0.0,-4.68,-0.76,1.19
15:06:12.146,0.05,0.01,-0.01,-4.69,-0.72,1.2
15:06:12.153,0.04,0.0,-0.03,-4.86,-0.66,1.0
15:06:12.160,0.02,0.01,-0.01,-4.74,-0.64,1.29
15:06:12.168,0.02,-0.01,-0.01,-4.76,-0.76,1.3
15:06:12.175,0.03,0.01,-0.01,-4.72,-0.63,1.26
15:06:12.182,0.01,0.01,-0.02,-4.67,-0.91,1.53
15:06:12.189,0.01,0.01,-0.02,-4.79,-0.98,1.63
15:06:12.197,0.01,0.01,-0.02,-4.53,-0.99,1.62
15:06:12.204,0.02,0.01,-0.01,-4.82,-1.07,1.74
15:06:12.211,0.02,-0.01,-0.01,-4.89,-1.12,2.06
15:06:12.219,0.02,0.01,-0.01,-4.79,-0.97,3.87
15:06:12.226,0.03,0.01,-0.01,-4.98,-1.26,2.03
15:06:12.233,0.03,0.01,-0.01,-4.89,-1.28,2.12
15:06:12.240,0.02,0.01,-0.03,-4.73,-1.41,2.02
15:06:12.248,0.03,0.01,-0.02,-4.78,-1.16,2.01
15:06:12.255,0.03,0.0,-0.01,-4.85,-1.34,1.89
15:06:12.262,0.01,0.0,-0.01,-4.69,-1.25,1.82
15:06:12.270,0.03,0.01,-0.02,-4.83,-1.02,1.68
15:06:12.277,0.02,-0.01,-0.01,-4.69,-1.11,1.76
15:06:12.284,0.02,0.0,-0.01,-4.85,-0.86,1.77
15:06:12.292,0.02,-0.0,-0.0,-4.76,-0.76,1.77
15:06:12.299,0.03,0.0,-0.01,-4.56,-0.86,1.71
15:06:12.306,0.03,0.0,-0.0,-4.82,-0.8,1.38
15:06:12.313,0.02,0.01,-0.01,-4.59,-0.52,1.33
15:06:12.321,0.01,0.01,-0.0,-4.56,-0.7,1.53
15:06:12.328,0.01,0.01,-0.0,-4.49,-0.68,1.67
15:06:12.335,0.0,0.0,-0.01,-4.63,-0.53,1.54
15:06:12.343,0.01,0.01,-0.01,-4.81,-0.57,1.47
15:06:12.350,0.02,0.01,0.0,-4.73,-0.53,1.89
15:06:12.357,0.02,0.0,-0.01,-4.64,-0.67,1.67
15:06:12.364,0.02,0.01,-0.01,-4.8,-0.5,1.92
15:06:12.372,0.02,0.0,-0.01,-4.47,-0.73,1.78
15:06:12.379,0.03,0.02,0.01,-4.56,-0.7,1.85
15:06:12.386,0.03,-0.0,0.0,-4.66,-0.57,1.63
15:06:12.394,0.03,-0.0,-0.01,-4.65,-0.48,1.53
15:06:12.401,0.02,-0.0,-0.0,-4.56,-0.7,1.66
15:06:12.408,0.03,-0.0,0.0,-4.66,-0.67,1.69
15:06:12.415,0.02,0.0,-0.0,-4.73,-0.74,1.84
15:06:12.423,0.03,-0.0,-0.0,-4.71,-0.71,1.74
15:06:12.430,0.03,0.0,-0.01,-4.69,-0.68,1.83
15:06:12.437,0.02,0.02,-0.02,-4.82,-0.78,1.79
15:06:12.445,0.03,0.01,-0.01,-4.67,-0.92,1.77
15:06:12.452,0.02,-0.0,-0.0,-4.75,-0.82,1.8
15:06:12.459,0.03,0.02,0.0,-4.68,-0.86,1.8
15:06:12.466,0.03,0.0,-0.0,-4.78,-0.82,1.88
15:06:12.474,0.05,0.0,-0.0,-4.66,-0.95,1.74
15:06:12.481,0.03,0.0,-0.01,-4.92,-0.8,1.9
15:06:12.488,0.02,-0.0,-0.0,-4.57,-0.66,3.82
15:06:12.495,0.03,0.01,0.0,-4.63,-0.62,1.85
15:06:12.503,0.02,-0.0,-0.01,-4.71,-0.73,1.76
15:06:12.510,0.03,-0.0,-0.01,-4.7,-0.84,1.95
15:06:12.517,0.05,0.0,0.01,-4.98,-0.76,1.86
15:06:12.525,0.03,0.01,-0.01,-4.77,-0.93,1.84
15:06:12.532,0.04,0.0,-0.0,-4.55,-0.65,1.74
15:06:12.539,0.02,0.0,-0.0,-4.55,-0.69,1.61
15:06:12.546,0.05,-0.0,-0.0,-4.58,-0.76,1.5
15:06:12.554,0.04,0.0,-0.01,-4.78,-0.66,1.42
15:06:12.561,0.04,-0.01,-0.0,-4.64,-0.64,1.19
15:06:12.568,0.04,0.01,0.0,-4.73,-0.47,1.39
15:06:12.575,0.05,0.0,-0.0,-4.63,-0.32,1.41
15:06:12.583,0.04,0.0,-0.01,-4.73,-0.44,1.18
15:06:12.590,0.04,0.0,0.0,-4.59,-0.47,1.15
15:06:12.597,0.04,0.0,0.0,-4.73,-0.45,1.35
15:06:12.605,0.03,-0.01,-0.0,-4.68,-0.6,1.09
15:06:12.612,-0.02,-0.01,0.02,-4.7,-0.59,1.61
15:06:12.619,-0.01,-0.01,0.03,-4.68,-0.78,1.4
15:06:12.627,-0.01,0.02,0.01,-4.69,-0.76,1.69
15:06:12.634,0.01,-0.01,0.01,-4.56,-0.99,1.78
15:06:12.641,0.01,0.0,0.02,-4.68,-0.79,3.87
15:06:12.648,0.01,-0.0,0.01,-4.75,-1.16,2.29
15:06:12.656,0.02,0.0,0.01,-4.76,-1.05,2.42
15:06:12.663,0.01,0.0,0.0,-4.75,-0.93,2.27
15:06:12.671,0.03,0.0,-0.01,-4.73,-0.93,2.42
15:06:12.678,0.02,-0.01,0.01,-4.82,-0.89,2.39
15:06:12.685,0.03,-0.0,-0.0,-4.83,-0.9,2.18
15:06:12.693,0.04,0.0,0.0,-4.72,-0.82,2.32
15:06:12.700,0.04,0.01,-0.0,-4.74,-0.64,2.17
15:06:12.707,0.06,-0.0,0.01,-4.6,-0.64,1.74
15:06:12.714,0.07,0.0,0.02,-4.79,-0.48,1.49
15:06:12.722,0.07,-0.01,0.03,-4.66,-0.39,1.08
15:06:12.729,0.09,-0.01,0.02,-4.57,-0.3,0.81
15:06:12.737,0.09,-0.0,0.03,-4.28,-0.08,0.31
15:06:12.744,0.09,-0.01,0.01,-4.56,0.24,0.03
15:06:12.751,0.08,-0.01,0.01,-4.27,0.22,-0.29
15:06:12.758,0.09,-0.01,0.03,-4.56,0.46,-0.51
15:06:12.766,0.08,-0.01,0.02,-4.47,0.4,-0.92
15:06:12.773,0.09,-0.02,0.03,-4.48,0.57,-1.31
15:06:12.780,0.07,-0.01,0.03,-4.34,0.58,-1.49
15:06:12.788,0.07,-0.01,0.01,-4.25,0.63,-1.64
15:06:12.795,0.05,-0.01,0.02,-4.35,0.79,-1.87
15:06:12.802,0.06,-0.0,0.01,-4.34,0.79,-1.82
15:06:12.809,0.05,-0.01,0.01,-4.44,0.69,-2.1
15:06:12.817,0.04,-0.01,0.02,-4.3,0.84,-2.07
15:06:12.824,0.04,-0.0,0.02,-4.16,0.82,-2.36
15:06:12.831,0.04,0.0,0.02,-4.27,0.91,-2.23
15:06:12.838,0.04,-0.01,0.02,-4.17,0.89,-2.25
15:06:12.846,0.04,-0.0,0.02,-4.19,0.95,-2.33
15:06:12.853,0.04,-0.0,0.02,-4.15,0.88,-2.51
15:06:12.860,0.04,-0.01,0.03,-4.24,1.21,-2.61
15:06:12.868,0.04,-0.01,0.02,-4.15,1.01,-2.52
15:06:12.875,0.03,0.01,0.02,-4.22,0.91,-2.78
15:06:12.882,0.04,0.0,0.02,-4.08,0.87,-2.67
15:06:12.889,0.03,-0.01,0.02,-4.09,1.11,-2.87
15:06:12.897,0.04,-0.02,0.02,-4.2,0.93,-2.75
15:06:12.904,0.02,-0.02,0.0,-4.41,0.99,-2.85
15:06:12.911,0.03,-0.0,0.02,-4.29,1.13,-2.87
15:06:12.918,0.02,-0.01,0.02,-4.22,1.17,-2.74
15:06:12.926,0.01,-0.02,0.01,-4.18,1.03,-2.76
15:06:12.933,0.01,0.0,0.01,-4.28,0.98,-2.47
15:06:12.940,0.02,-0.0,0.01,-4.3,0.89,-2.47
15:06:12.948,0.0,-0.0,0.02,-4.49,0.88,-2.55
15:06:12.955,0.0,-0.01,0.01,-4.44,0.76,-2.34
15:06:12.962,-0.01,0.0,0.01,-4.2,0.52,-1.96
15:06:12.969,-0.01,0.01,0.01,-4.4,0.59,-1.8
15:06:12.977,-0.01,0.0,0.02,-4.42,0.5,-1.75
15:06:12.984,-0.0,-0.0,0.02,-4.18,0.3,-1.59
15:06:12.991,-0.01,-0.0,-0.0,-4.28,0.13,-1.39
15:06:12.998,-0.01,-0.01,0.02,-4.37,0.13,-1.21
15:06:13.006,-0.01,0.01,0.02,-4.5,0.37,-1.2
15:06:13.013,-0.01,-0.01,0.01,-4.33,0.18,-0.91
15:06:13.020,0.0,-0.01,0.01,-4.44,0.19,-1.07
15:06:13.028,-0.0,-0.0,0.02,-4.41,0.05,-0.68
15:06:13.035,-0.01,-0.01,0.03,-4.24,1.92,-0.68
15:06:13.042,-0.0,0.0,0.02,-4.37,0.22,-0.58
15:06:13.049,-0.01,0.0,0.02,-4.56,0.43,-0.58
15:06:13.057,0.01,0.0,0.02,-4.41,0.21,-0.43
15:06:13.064,0.0,0.0,0.02,-4.34,0.15,-0.52
15:06:13.071,0.01,-0.01,0.0,-4.38,0.21,-0.39
15:06:13.078,0.01,-0.0,0.02,-4.37,0.27,-0.65
15:06:13.086,0.01,-0.0,0.02,-4.36,0.36,-0.65
15:06:13.093,0.03,-0.01,0.03,-4.39,0.37,-0.49
15:06:13.100,0.03,-0.0,0.03,-4.27,0.5,-0.71
15:06:13.108,0.03,-0.01,0.02,-4.31,0.51,-0.84
15:06:13.115,0.03,-0.01,0.02,-4.34,0.49,-1.01
15:06:13.122,0.04,-0.01,0.02,-4.29,0.76,-1.33
15:06:13.129,0.03,-0.01,0.02,-4.45,0.67,-1.28
15:06:13.137,0.04,-0.01,0.04,-4.31,0.81,-1.5
15:06:13.144,0.03,-0.01,0.03,-4.4,0.66,-1.42
15:06:13.151,0.04,-0.02,0.03,-4.21,0.79,-1.62
15:06:13.158,0.04,-0.02,0.02,-4.21,0.57,-1.71
15:06:13.166,0.03,-0.01,0.03,-4.33,0.7,-1.82
15:06:13.173,0.03,-0.01,0.04,-4.37,0.39,-1.81
15:06:13.180,0.02,-0.0,0.04,-4.23,0.79,-1.91
15:06:13.188,0.01,-0.01,0.03,-4.04,0.72,-1.85
15:06:13.195,0.01,-0.02,0.02,-4.37,0.56,-1.83
15:06:13.202,0.02,0.0,0.02,-4.32,0.53,-1.83
15:06:13.209,0.01,-0.01,0.02,-4.37,0.56,-1.54
15:06:13.217,0.01,-0.0,0.01,-4.35,0.66,-1.76
15:06:13.224,0.0,-0.01,0.02,-4.35,0.64,-1.72
15:06:13.231,0.01,-0.01,0.02,-4.33,0.63,-1.52
15:06:13.238,0.02,-0.02,0.03,-4.18,0.44,-1.62
15:06:13.246,0.01,-0.01,0.02,-4.4,0.5,-1.68
15:06:13.253,-0.0,-0.01,0.01,-4.23,0.53,-1.37
15:06:13.260,-0.0,-0.0,0.02,-4.4,0.57,-1.15
15:06:13.268,-0.01,-0.0,0.03,-4.37,0.36,-1.18
15:06:13.275,0.0,-0.01,0.02,-4.4,0.42,-1.17
15:06:13.282,0.0,-0.02,0.02,-4.51,0.55,-1.09
15:06:13.289,0.01,-0.01,0.02,-4.36,0.34,-1.2
15:06:13.297,0.02,-0.0,0.01,-4.44,0.32,-1.17
15:06:13.304,0.0,-0.0,0.01,-4.22,0.52,-1.13
15:06:13.311,0.01,-0.0,0.01,-4.39,0.47,-1.01
15:06:13.318,0.0,-0.0,0.0,-4.4,0.35,-0.8
15:06:13.326,0.02,-0.0,0.01,-4.34,0.33,-0.94
15:06:13.333,0.01,0.0,0.01,-4.28,0.38,-0.67
15:06:13.340,-0.01,-0.01,0.0,-4.56,0.28,-1.08
15:06:13.348,0.01,-0.0,0.01,-4.43,0.28,-1.0
15:06:13.355,0.01,0.0,0.01,-4.37,0.31,-1.01
15:06:13.362,0.01,0.0,0.0,-4.44,0.28,-1.19
15:06:13.369,0.01,-0.01,0.02,-4.25,0.33,-1.02
15:06:13.377,0.01,0.0,0.0,-4.56,0.59,-1.19
15:06:13.384,0.01,-0.0,0.01,-4.56,0.43,-1.26
15:06:13.391,0.02,-0.0,0.01,-4.44,0.5,-1.17
15:06:13.398,-0.0,0.01,0.0,-4.6,0.65,-1.06
15:06:13.406,-0.0,0.0,0.0,-4.19,0.44,-0.87
15:06:13.413,-0.0,0.01,0.0,-4.2,0.49,-1.03
15:06:13.420,0.0,-0.0,0.01,-4.3,0.32,-1.23
15:06:13.427,-0.01,-0.0,0.0,-4.4,0.46,-1.04
15:06:13.435,-0.01,-0.0,0.0,-4.33,0.23,-1.04
15:06:13.442,-0.01,0.01,0.01,-4.42,0.3,-0.52
15:06:13.449,0.0,0.0,0.01,-4.34,0.24,-0.5
15:06:13.456,-0.01,0.0,0.01,-4.23,0.2,-0.62
15:06:13.464,-0.01,0.0,-0.0,-4.59,0.21,-0.53
15:06:13.471,0.0,-0.0,0.0,-4.64,0.11,-0.55
15:06:13.478,0.02,-0.0,0.01,-4.27,0.11,-0.5
15:06:13.486,-0.0,-0.01,0.01,-4.62,0.23,-0.38
15:06:13.493,-0.0,0.0,0.01,-4.34,-0.0,-0.31
15:06:13.500,-0.01,-0.0,0.01,-4.36,-0.14,-0.09
15:06:13.507,0.0,0.0,-0.01,-4.3,0.05,1.89
15:06:13.515,-0.02,0.01,0.02,-4.59,-0.0,-0.14
15:06:13.522,0.0,-0.01,-0.0,-4.36,-0.08,-0.1
15:06:13.529,-0.01,0.0,0.01,-4.48,-0.04,-0.21
15:06:13.537,0.0,0.0,0.01,-4.52,-1.95,1.86
15:06:13.544,-0.01,-0.0,0.01,-4.43,-1.97,0.11
15:06:13.551,-0.01,0.0,-0.0,-4.52,-0.23,0.19
15:06:13.558,-0.02,0.0,0.01,-4.39,-0.12,0.4
15:06:13.566,-0.01,0.0,0.01,-4.37,-0.2,0.45
15:06:13.573,-0.0,0.0,0.01,-4.48,-0.15,0.38
15:06:13.580,-0.01,-0.0,0.02,-4.52,1.83,0.38
15:06:13.587,-0.01,-0.0,0.01,-4.63,-0.18,0.62
15:06:13.595,-0.01,-0.0,0.01,-4.53,-0.35,0.65
15:06:13.602,0.0,-0.0,0.01,-4.51,-0.29,0.61
15:06:13.609,-0.01,-0.0,0.01,-4.5,-0.28,0.77
15:06:13.616,-0.01,-0.0,0.01,-4.74,-0.13,0.74
15:06:13.624,-0.01,0.0,0.01,-4.4,-0.36,0.82
15:06:13.631,-0.0,0.0,0.01,-4.55,-0.21,0.74
15:06:13.638,-0.0,0.0,0.0,-4.6,-0.33,0.77
15:06:13.645,-0.01,-0.0,0.01,-4.36,-0.21,0.67
15:06:13.653,0.01,0.0,-0.0,-4.54,-0.3,0.57
15:06:13.660,0.01,-0.01,0.01,-4.59,-0.41,0.67
15:06:13.668,-0.01,-0.0,0.01,-4.54,-0.32,0.73
15:06:13.675,0.0,-0.0,0.01,-4.61,-0.13,0.76
15:06:13.682,0.02,-0.0,0.01,-4.49,-0.49,0.74
15:06:13.690,0.0,-0.0,0.02,-4.38,-0.08,0.68
15:06:13.697,0.0,-0.0,0.0,-4.44,-0.5,0.64
15:06:13.704,0.01,-0.02,0.02,-4.51,-0.1,0.44
15:06:13.711,0.01,-0.0,0.02,-4.53,-0.34,0.31
15:06:13.719,0.02,0.01,0.03,-4.56,-0.24,0.43
15:06:13.726,0.02,-0.0,0.02,-4.56,1.93,0.23
15:06:13.733,0.01,-0.0,0.01,-4.61,0.05,0.13
15:06:13.741,0.01,-0.0,0.02,-4.3,-0.05,0.09
15:06:13.748,0.01,-0.0,0.02,-4.44,1.93,-0.11
15:06:13.755,0.02,-0.0,0.02,-4.35,-0.17,-0.21
15:06:13.762,0.01,-0.0,0.02,-4.4,0.18,-0.25
15:06:13.770,0.02,0.0,0.02,-4.38,0.03,-0.29
15:06:13.777,0.02,-0.01,0.01,-4.41,0.18,-0.29
15:06:13.784,0.01,-0.0,0.02,-4.31,0.18,-0.28
15:06:13.792,0.02,-0.0,0.02,-4.47,0.4,-0.62
15:06:13.799,0.02,-0.01,0.02,-4.4,0.37,-0.67
15:06:13.806,0.02,-0.01,0.02,-4.2,0.39,-0.8
15:06:13.813,0.02,-0.01,0.02,-4.44,0.14,-0.81
15:06:13.821,0.03,0.0,0.02,-4.15,0.62,-1.18
15:06:13.828,0.03,0.0,0.01,-4.42,0.35,-1.21
15:06:13.835,0.02,-0.0,0.01,-4.16,0.61,-1.29
15:06:13.843,0.02,-0.0,0.02,-4.4,0.64,-1.68
15:06:13.850,0.04,0.0,0.01,-4.23,0.67,-1.81
15:06:13.857,0.03,-0.0,0.01,-4.08,0.87,-2.18
15:06:13.864,0.03,-0.01,0.01,-4.34,1.13,-2.34
15:06:13.872,0.02,-0.01,0.03,-4.26,1.0,-2.26
15:06:13.879,0.03,-0.0,0.01,-4.24,1.06,-2.55
15:06:13.886,-0.01,-0.01,-0.01,-4.51,1.08,-2.29
15:06:13.894,-0.0,-0.0,0.01,-4.43,0.94,-2.27
15:06:13.901,-0.01,-0.0,0.0,-4.34,0.9,-2.22
15:06:13.908,-0.0,-0.0,-0.02,-4.45,0.99,-3.93
15:06:13.915,-0.01,0.0,0.0,-4.34,0.87,-2.2
15:06:13.923,-0.0,0.0,0.0,-4.08,0.59,-2.2
15:06:13.930,-0.0,0.0,0.01,-4.13,0.86,-2.17
15:06:13.937,-0.01,0.0,0.02,-4.31,0.78,-2.23
15:06:13.944,-0.0,-0.0,0.01,-4.18,0.68,-2.14
15:06:13.952,-0.01,0.01,0.03,-4.34,0.68,-2.34
15:06:13.959,0.0,-0.01,0.02,-4.05,0.74,-2.29
15:06:13.966,0.02,-0.01,0.03,-4.16,1.02,-2.29
15:06:13.974,-0.01,-0.01,0.04,-4.25,0.76,-2.53
15:06:13.981,-0.01,-0.0,0.01,-4.2,0.94,-2.52
15:06:13.988,-0.01,0.0,0.01,-4.29,0.95,-2.31
15:06:13.995,-0.02,-0.01,0.02,-4.11,0.95,-2.39
15:06:14.003,-0.02,0.0,0.01,-4.0,0.95,-2.26
15:06:14.010,-0.02,-0.02,-0.0,-4.38,0.92,-2.29
15:06:14.017,-0.03,0.0,0.01,-4.27,0.94,-2.17
15:06:14.024,-0.03,-0.0,0.0,-4.24,0.83,-2.05
15:06:14.032,-0.03,-0.0,0.0,-4.31,0.72,-1.71
15:06:14.039,-0.04,-0.0,-0.0,-4.45,0.63,-1.52
15:06:14.047,-0.04,-0.0,-0.0,-4.5,0.64,-1.48
15:06:14.054,-0.03,0.0,0.0,-4.31,0.65,-1.27
15:06:14.061,-0.04,-0.0,-0.01,-4.49,0.4,-1.19
15:06:14.068,-0.03,0.0,0.0,-4.47,0.34,-1.15
15:06:14.076,-0.03,0.01,-0.02,-4.35,0.41,-0.96
15:06:14.083,-0.03,-0.0,0.0,-4.32,0.23,-0.97
15:06:14.090,-0.04,-0.01,-0.0,-4.26,0.29,-0.73
15:06:14.098,-0.03,0.0,-0.01,-4.26,0.34,-0.85
15:06:14.105,-0.02,0.0,-0.0,-4.34,0.33,-0.84
15:06:14.112,-0.02,0.0,-0.0,-4.4,0.36,-0.82
15:06:14.119,-0.02,0.01,-0.0,-4.44,0.27,-0.56
15:06:14.127,-0.03,0.01,0.0,-4.36,0.3,-0.5
15:06:14.134,-0.03,-0.0,0.0,-4.44,0.16,-0.53
15:06:14.141,-0.03,0.01,0.0,-4.47,-1.94,-0.24
15:06:14.149,-0.03,0.0,0.0,-4.47,-0.08,-0.0
15:06:14.156,-0.03,0.0,0.01,-4.31,-0.11,-0.1
15:06:14.163,-0.03,0.0,0.0,-4.51,0.14,-0.08
15:06:14.170,-0.03,-0.0,-0.0,-4.4,-0.08,1.93
15:06:14.178,-0.03,-0.01,0.01,-4.73,0.05,0.25
15:06:14.185,-0.03,0.0,-0.01,-4.51,-0.15,0.47
15:06:14.192,-0.03,0.0,0.01,-4.4,-0.13,0.17
15:06:14.199,-0.02,-0.0,0.01,-4.59,-0.1,0.32
15:06:14.207,-0.01,-0.01,-0.0,-4.43,1.91,0.33
15:06:14.214,-0.03,0.01,-0.02,-4.59,0.01,0.61
15:06:14.221,-0.02,-0.0,0.0,-4.44,-0.18,0.81
15:06:14.229,-0.02,0.0,-0.0,-4.68,-0.3,0.55
15:06:14.236,0.0,-0.0,-0.0,-4.47,-0.24,0.56
15:06:14.243,-0.02,0.0,0.01,-4.5,0.11,0.29
15:06:14.250,-0.01,0.0,-0.01,-4.53,-0.06,0.45
15:06:14.258,-0.01,-0.0,0.01,-4.49,-0.17,0.39
15:06:14.265,-0.0,-0.0,-0.0,-4.58,1.89,0.28
15:06:14.272,-0.01,-0.0,-0.01,-4.5,-0.03,0.38
15:06:14.280,-0.01,0.0,0.01,-4.53,0.08,0.09
15:06:14.287,-0.01,0.01,0.0,-4.47,0.05,0.14
15:06:14.294,-0.01,-0.01,-0.0,-4.5,-1.94,0.0
15:06:14.301,-0.01,0.0,0.0,-4.51,-0.02,-0.07
15:06:14.309,-0.02,0.01,-0.01,-4.34,-0.13,0.13
15:06:14.316,-0.02,0.01,-0.01,-4.63,1.92,0.19
15:06:14.323,-0.02,0.02,0.0,-4.42,-0.01,0.16
15:06:14.331,-0.02,0.01,-0.0,-4.42,-0.11,0.4
15:06:14.338,-0.03,0.02,-0.02,-4.57,-0.22,0.4
15:06:14.345,-0.02,0.01,0.0,-4.56,-0.24,0.58
15:06:14.352,-0.03,0.01,-0.0,-4.5,-0.24,0.71
15:06:14.360,-0.03,-0.0,0.01,-4.52,-0.44,0.67
15:06:14.367,-0.03,0.0,-0.0,-4.49,-0.38,0.8
15:06:14.374,-0.03,0.0,0.0,-4.42,-0.29,1.09
15:06:14.381,-0.03,0.0,-0.01,-4.63,-0.57,0.83
15:06:14.389,-0.03,0.0,-0.02,-4.55,-0.24,1.13
15:06:14.396,-0.03,0.0,-0.0,-4.68,-0.47,1.14
15:06:14.403,-0.02,-0.01,-0.02,-4.73,-0.31,1.27
15:06:14.410,-0.02,0.01,-0.01,-4.53,-0.47,1.37
15:06:14.418,-0.02,0.0,-0.0,-4.67,-0.41,1.21
15:06:14.425,-0.02,0.01,0.0,-4.73,-0.52,1.32
15:06:14.432,-0.02,0.01,0.0,-4.76,-0.53,1.21
15:06:14.440,-0.02,-0.0,-0.0,-4.69,-0.45,1.38
15:06:14.447,-0.02,0.0,-0.0,-4.64,-0.37,1.23
15:06:14.454,-0.02,0.01,-0.01,-4.75,-0.34,1.23
15:06:14.461,-0.01,0.01,0.0,-4.49,-0.34,1.38
15:06:14.469,0.0,0.0,0.01,-4.66,-0.47,1.14
15:06:14.476,-0.01,0.01,0.0,-4.53,-0.5,1.28
15:06:14.483,-0.01,0.01,-0.0,-4.66,-0.31,1.22
15:06:14.491,-0.01,0.0,-0.01,-4.73,-0.34,1.21
15:06:14.498,-0.01,0.0,-0.01,-4.7,-0.37,1.13
15:06:14.505,-0.01,0.0,-0.01,-4.53,-0.22,1.2
15:06:14.512,-0.01,0.01,-0.0,-4.51,-0.21,1.15
15:06:14.520,0.0,0.0,-0.02,-4.63,-0.15,1.03
15:06:14.527,-0.0,0.01,-0.01,-4.6,0.11,0.87
15:06:14.534,-0.01,-0.0,0.0,-4.42,-0.26,0.77
15:06:14.542,-0.0,0.0,0.0,-4.51,-0.08,0.65
15:06:14.549,0.01,0.0,0.01,-4.53,-0.14,0.54
15:06:14.556,0.01,-0.01,0.0,-4.49,0.04,0.36
15:06:14.563,0.01,-0.0,0.01,-4.27,-0.0,-0.02
15:06:14.571,0.02,-0.0,0.01,-4.56,0.3,0.0
15:06:14.578,0.01,0.0,0.03,-4.37,0.24,-0.38
15:06:14.585,0.02,-0.0,0.01,-4.5,0.21,-0.4
15:06:14.592,0.02,-0.0,-0.0,-4.47,0.34,-0.68
15:06:14.600,0.02,0.0,0.01,-4.14,0.72,-0.87
15:06:14.607,0.02,0.0,0.01,-4.46,0.66,-1.05
15:06:14.614,0.02,-0.0,0.0,-4.18,0.52,-1.55
15:06:14.622,0.02,-0.0,0.01,-4.39,0.92,-1.61
15:06:14.629,0.02,0.0,0.01,-4.52,0.78,-1.86
15:06:14.636,0.01,0.0,0.0,-4.3,0.76,-0.13
15:06:14.643,0.01,0.0,0.01,-4.21,0.97,-2.2
15:06:14.651,0.0,-0.01,0.0,-4.2,1.05,-2.33
15:06:14.658,0.0,-0.01,-0.0,-4.34,0.92,-2.38
15:06:14.665,0.0,0.0,0.01,-4.44,1.0,-2.59
15:06:14.673,-0.01,0.0,-0.01,-4.23,0.84,-2.46
15:06:14.680,-0.01,-0.0,-0.0,-4.37,0.72,-2.52
15:06:14.687,-0.01,0.0,0.01,-4.15,0.68,-2.55
15:06:14.695,-0.01,0.0,0.01,-4.24,0.69,-2.62
15:06:14.702,-0.03,-0.0,0.01,-4.27,0.56,-2.38
15:06:14.709,-0.03,0.0,-0.01,-4.28,0.72,-2.47
15:06:14.717,-0.04,0.0,0.0,-4.18,0.59,-2.06
15:06:14.724,-0.05,0.0,-0.0,-4.44,0.54,-2.1
15:06:14.731,-0.06,0.0,0.0,-4.38,0.43,-1.73
15:06:14.738,-0.06,0.0,-0.01,-4.41,0.54,-1.38
15:06:14.746,-0.07,0.01,-0.0,-4.26,0.37,-1.02
15:06:14.753,-0.07,0.01,-0.0,-4.37,0.24,-0.92
15:06:14.760,-0.06,-0.0,0.0,-4.39,0.2,-0.71
15:06:14.768,-0.04,0.0,0.0,-4.4,0.1,-0.54
15:06:14.775,-0.06,-0.0,0.01,-4.4,-0.21,-0.38
15:06:14.782,-0.05,0.0,0.0,-4.56,0.05,-0.07
15:06:14.789,-0.05,0.01,-0.0,-4.46,-1.94,0.18
15:06:14.797,-0.05,0.0,0.01,-4.51,-0.02,0.17
15:06:14.804,-0.05,0.0,0.0,-4.62,-0.07,0.25
15:06:14.811,-0.04,0.01,-0.0,-4.47,-1.97,0.26
15:06:14.818,-0.04,0.01,-0.0,-4.34,-0.05,0.25
15:06:14.826,-0.04,0.01,-0.01,-4.5,-0.13,0.31
15:06:14.833,-0.03,0.01,-0.02,-4.57,-0.24,0.82
15:06:14.840,-0.04,-0.01,-0.01,-4.43,-0.12,0.79
15:06:14.848,-0.04,0.0,0.0,-4.67,-0.36,0.82
15:06:14.855,-0.03,0.0,-0.0,-4.44,-0.5,1.03
15:06:14.862,-0.04,-0.0,-0.01,-4.39,-0.48,1.08
15:06:14.869,-0.03,-0.0,0.0,-4.53,-0.37,1.04
15:06:14.877,-0.04,0.0,-0.0,-4.56,-0.55,1.22
15:06:14.884,-0.04,0.0,0.0,-4.6,-0.5,1.33
15:06:14.891,-0.04,0.0,-0.0,-4.52,-0.68,1.32
15:06:14.898,-0.06,0.01,0.0,-4.57,-0.52,1.45
15:06:14.906,-0.04,0.0,0.0,-4.67,-0.24,1.44
15:06:14.913,-0.04,-0.0,0.01,-4.62,-0.57,1.53
15:06:14.920,-0.04,0.01,0.0,-4.56,-0.53,1.52
15:06:14.928,-0.03,0.0,0.01,-4.78,-0.6,1.53
15:06:14.935,-0.03,0.0,0.01,-4.67,-0.6,1.63
15:06:14.942,-0.01,0.0,0.01,-4.69,-0.4,1.53
15:06:14.949,-0.03,-0.0,0.01,-4.58,-0.63,1.51
15:06:14.957,-0.02,-0.02,-0.0,-4.47,-0.74,1.9
15:06:14.964,-0.03,-0.0,0.01,-4.63,-0.82,1.84
15:06:14.971,-0.03,0.0,0.0,-4.63,-0.72,1.91
15:06:14.978,-0.03,-0.0,0.0,-4.62,-0.7,2.11
15:06:14.986,-0.06,-0.0,-0.0,-4.85,-0.84,2.11
15:06:14.993,-0.04,-0.0,0.01,-4.66,-0.88,2.31
15:06:15.000,-0.04,-0.0,0.01,-4.84,-0.84,2.25
15:06:15.007,-0.04,0.01,0.01,-4.85,-0.85,2.47
15:06:15.015,-0.03,0.0,0.01,-4.79,-1.16,2.39
15:06:15.022,-0.03,0.0,0.01,-4.73,-1.22,2.56
15:06:15.029,-0.04,0.01,0.0,-4.6,-0.96,2.83
15:06:15.037,-0.04,0.0,0.0,-4.78,-1.37,3.0
15:06:15.044,-0.04,0.01,0.0,-4.73,-1.15,2.96
15:06:15.051,-0.04,-0.01,-0.01,-4.85,-1.23,3.16
15:06:15.058,-0.04,0.0,0.0,-4.75,-1.3,3.35
15:06:15.066,-0.03,0.01,0.0,-5.05,-1.4,3.35
15:06:15.073,-0.04,0.02,-0.01,-4.93,-1.28,3.28
15:06:15.080,-0.03,0.0,-0.01,-4.8,-1.5,3.4
15:06:15.087,-0.04,0.01,-0.01,-4.96,-1.44,3.59
15:06:15.095,-0.04,0.01,-0.01,-4.7,-1.66,4.01
15:06:15.102,-0.03,0.01,0.0,-4.88,-1.59,3.77
15:06:15.109,-0.04,-0.0,-0.0,-4.99,-1.73,4.19
15:06:15.117,-0.04,0.02,0.01,-4.63,-1.86,4.12
15:06:15.124,-0.04,0.0,-0.0,-4.92,-1.76,4.34
15:06:15.131,-0.03,0.01,0.0,-4.89,-1.62,4.3
15:06:15.138,-0.03,0.0,0.01,-4.97,-1.76,4.32
15:06:15.146,-0.02,0.01,-0.0,-4.94,-1.85,4.36
15:06:15.153,-0.02,0.01,0.0,-4.9,-1.7,4.42
15:06:15.160,-0.02,0.02,-0.02,-4.89,-1.86,4.39
15:06:15.167,-0.01,0.0,-0.0,-4.98,-1.76,4.41
15:06:15.175,-0.0,0.0,-0.0,-4.83,-1.65,4.45
15:06:15.182,-0.01,0.02,0.0,-4.96,-1.52,4.16
15:06:15.189,0.0,0.01,0.0,-4.9,-1.5,3.95
15:06:15.196,0.02,0.0,0.01,-5.21,-1.56,3.96
15:06:15.204,0.02,0.0,0.01,-4.76,-1.5,3.9
15:06:15.211,0.01,0.01,0.01,-4.69,-1.31,3.56
15:06:15.218,0.02,-0.01,0.01,-4.69,-1.43,3.47
15:06:15.226,0.01,-0.0,0.01,-4.85,-1.26,3.29
15:06:15.233,0.02,-0.0,0.0,-4.69,-1.24,3.01
15:06:15.240,0.02,-0.0,0.01,-4.92,-1.13,3.06
15:06:15.247,0.02,0.0,0.0,-4.66,-1.12,2.67
15:06:15.255,0.02,-0.01,-0.0,-4.71,-0.99,2.68
15:06:15.262,0.03,0.01,0.0,-4.6,-1.01,2.27
15:06:15.269,0.01,-0.01,0.0,-4.61,-1.05,2.19
15:06:15.276,0.02,-0.0,0.0,-4.61,-0.76,2.14
15:06:15.284,0.01,-0.0,0.0,-4.56,-1.03,2.45
15:06:15.291,0.01,0.0,0.0,-4.91,-0.81,2.48
15:06:15.298,-0.01,-0.0,-0.0,-4.56,-0.82,2.45
15:06:15.305,-0.01,0.0,0.01,-4.74,-0.76,2.42
15:06:15.313,-0.04,0.01,0.0,-4.79,-0.71,2.65
15:06:15.320,-0.02,0.01,0.0,-4.71,-0.66,2.8
15:06:15.327,-0.01,-0.0,0.01,-4.76,-0.92,2.8
15:06:15.337,-0.0,0.0,0.0,-4.58,-0.77,2.5
15:06:15.344,0.01,-0.01,0.01,-4.69,-0.88,2.48
15:06:15.352,0.01,-0.0,-0.01,-4.69,-0.81,2.4
15:06:15.359,0.01,-0.0,0.0,-4.74,-0.8,2.34
15:06:15.366,0.03,0.0,0.0,-4.7,-0.67,2.09
15:06:15.374,0.04,0.0,0.0,-4.8,-0.57,1.65
15:06:15.381,0.02,0.0,0.01,-4.65,-0.62,1.54
15:06:15.388,0.02,-0.01,0.01,-4.66,-0.46,1.33
15:06:15.395,0.02,-0.0,0.02,-4.72,-0.53,1.06
15:06:15.403,0.02,-0.0,0.02,-4.75,-0.46,0.99
15:06:15.410,0.01,-0.0,0.01,-4.56,-0.45,1.0
15:06:15.417,0.01,-0.0,0.01,-4.65,-0.24,0.73
15:06:15.424,-0.0,-0.01,0.01,-4.46,-0.41,0.76
15:06:15.432,0.02,-0.0,0.01,-4.26,-0.1,0.33
15:06:15.439,0.01,-0.0,0.01,-4.38,-0.17,0.36
15:06:15.446,0.0,-0.0,0.01,-4.65,1.85,0.25
15:06:15.453,0.01,-0.0,0.0,-4.46,-0.05,0.04
15:06:15.461,0.01,-0.01,0.02,-4.49,-0.07,-0.05
15:06:15.468,0.01,-0.02,0.05,-4.37,1.92,-1.92
15:06:15.475,0.0,-0.0,0.05,-4.5,0.05,-0.1
15:06:15.483,0.02,0.0,0.02,-4.51,0.34,-0.12
15:06:15.490,0.02,-0.01,0.0,-4.6,-0.0,-0.36
15:06:15.497,0.02,0.01,-0.0,-4.42,0.39,-0.66
15:06:15.504,0.02,0.01,0.01,-4.45,0.66,-0.76
15:06:15.512,0.04,0.02,-0.01,-4.47,0.56,-1.12
15:06:15.519,0.05,0.01,-0.01,-4.31,0.8,-1.58
15:06:15.526,0.06,0.01,0.0,-4.12,0.93,-2.2
15:06:15.533,0.05,-0.01,0.02,-4.26,0.82,-2.27
15:06:15.541,0.01,-0.01,0.03,-4.11,0.7,-2.0
15:06:15.548,-0.01,-0.01,0.02,-4.36,0.59,-1.57
15:06:15.555,-0.03,-0.02,0.02,-4.28,0.78,-1.48
15:06:15.562,-0.03,-0.01,0.02,-4.28,0.53,-1.39
15:06:15.570,-0.02,-0.02,0.0,-4.4,0.28,-1.42
15:06:15.577,-0.03,-0.01,0.01,-4.34,0.5,-1.56
15:06:15.584,-0.0,-0.01,0.01,-4.42,0.39,-1.86
15:06:15.591,-0.01,-0.01,0.02,-4.35,0.3,-1.57
15:06:15.599,-0.04,0.0,0.01,-4.31,0.45,-0.93
15:06:15.606,-0.04,-0.0,-0.0,-4.18,0.22,-0.66
15:06:15.613,-0.07,-0.01,0.01,-4.35,0.21,-0.41
15:06:15.620,-0.05,-0.0,-0.01,-4.47,0.24,-0.25
15:06:15.628,-0.07,-0.0,0.01,-4.53,-0.08,0.06
15:06:15.635,-0.05,0.01,0.0,-4.6,-0.24,0.25
15:06:15.642,-0.09,-0.01,0.0,-4.55,-0.55,0.77
15:06:15.650,-0.06,0.02,-0.01,-4.64,-0.59,1.17
15:06:15.657,-0.08,0.0,-0.01,-4.76,-0.73,1.67
15:06:15.664,-0.07,0.0,-0.0,-4.44,-0.7,1.97
15:06:15.671,-0.07,-0.01,-0.02,-4.69,-0.73,2.29
15:06:15.679,-0.06,0.0,-0.0,-4.76,-0.84,2.42
15:06:15.686,-0.05,0.01,-0.01,-4.73,-1.19,2.89
15:06:15.694,-0.05,-0.0,-0.01,-4.92,-1.04,3.1
15:06:15.701,-0.06,0.0,-0.01,-4.83,-1.39,3.31
15:06:15.708,-0.04,0.0,-0.0,-5.01,-1.33,3.44
15:06:15.715,-0.03,0.01,0.0,-4.92,-1.46,3.7
15:06:15.723,-0.04,0.01,-0.01,-4.84,-1.58,3.89
15:06:15.730,-0.03,-0.01,0.0,-4.94,-1.6,5.76
15:06:15.737,-0.02,-0.0,-0.0,-4.92,-1.76,3.96
15:06:15.745,-0.01,-0.0,-0.01,-4.74,-1.74,4.03
15:06:15.752,-0.01,-0.0,-0.01,-4.76,-1.53,4.06
15:06:15.759,-0.0,0.0,0.01,-4.77,-1.76,3.92
15:06:15.766,-0.0,0.0,-0.0,-5.05,-1.74,3.78
15:06:15.774,0.01,-0.01,0.02,-4.78,-1.48,1.98
15:06:15.781,0.01,0.0,0.02,-4.78,-1.41,3.77
15:06:15.788,0.01,-0.01,0.0,-4.68,-1.53,3.67
15:06:15.795,0.02,-0.0,0.02,-4.92,-1.5,3.44
15:06:15.803,0.02,-0.0,0.03,-4.74,-1.34,3.23
15:06:15.810,0.03,-0.0,0.02,-4.85,-1.45,2.96
15:06:15.817,0.03,-0.01,0.02,-4.94,-1.26,2.74
15:06:15.825,0.01,-0.0,0.01,-4.73,-1.18,2.67
15:06:15.832,0.01,-0.0,0.02,-4.8,-1.05,2.71
15:06:15.839,0.02,-0.0,0.02,-4.57,-0.93,2.58
15:06:15.847,0.02,0.0,-0.0,-4.5,-1.08,2.45
15:06:15.854,0.01,0.0,0.02,-4.65,-0.96,2.31
15:06:15.861,0.01,-0.01,0.02,-4.7,-0.89,2.37
15:06:15.868,0.01,0.0,-0.0,-4.63,-0.95,2.15
15:06:15.876,0.01,-0.01,0.01,-4.63,-0.74,2.03
15:06:15.883,0.02,-0.0,0.02,-4.67,-0.81,1.92
15:06:15.890,0.03,0.0,-0.0,-4.69,-0.81,1.79
15:06:15.897,0.03,-0.0,0.01,-4.61,-0.61,1.48
15:06:15.905,0.04,0.0,0.01,-4.68,-0.61,1.29
15:06:15.912,0.04,0.0,0.02,-4.65,-0.45,1.12
15:06:15.919,0.03,-0.01,0.01,-4.48,-0.36,1.06
15:06:15.927,0.04,0.0,0.01,-4.55,-0.34,0.42
15:06:15.934,0.04,-0.0,0.02,-4.53,-0.24,0.35
15:06:15.941,0.05,-0.0,0.01,-4.33,-0.05,0.05
15:06:15.948,0.04,-0.0,0.02,-4.42,0.11,-0.29
15:06:15.956,0.06,-0.01,0.02,-4.43,0.33,-0.69
15:06:15.963,0.06,-0.0,0.03,-4.44,0.53,-1.2
15:06:15.970,0.06,-0.0,0.03,-4.26,0.65,-1.47
15:06:15.978,0.07,-0.01,0.02,-4.27,0.82,-1.93
15:06:15.985,0.07,-0.01,0.02,-4.34,0.88,-2.5
15:06:15.992,0.08,-0.0,0.03,-4.12,1.27,-3.13
15:06:15.999,0.07,-0.01,0.03,-4.13,1.32,-3.5
15:06:16.007,0.08,-0.01,0.01,-4.14,1.63,-4.13
15:06:16.014,0.05,-0.01,0.02,-4.01,1.52,-4.26
15:06:16.021,0.06,-0.01,0.02,-4.09,2.1,-4.92
15:06:16.029,0.06,0.01,0.01,-3.98,3.85,-5.33
15:06:16.036,0.05,0.01,0.01,-3.92,2.3,-5.58
15:06:16.043,0.05,-0.0,0.02,-3.82,2.53,-5.81
15:06:16.050,0.04,-0.0,0.02,-3.76,2.44,-6.43
15:06:16.058,0.04,0.0,0.01,-3.56,2.75,-6.57
15:06:16.065,0.04,0.0,0.01,-3.76,2.7,-7.06
15:06:16.072,0.03,-0.0,0.01,-3.61,2.88,-7.04
15:06:16.080,0.02,-0.0,0.01,-3.76,2.87,-7.05
15:06:16.087,0.01,-0.0,0.0,-3.71,2.82,-7.18
15:06:16.094,-0.01,0.0,0.0,-3.75,2.87,-7.29
15:06:16.102,-0.01,0.0,0.0,-3.82,2.82,-7.3
15:06:16.109,-0.01,0.01,0.0,-3.75,2.77,-7.42
15:06:16.116,-0.0,-0.0,0.0,-3.45,2.85,-7.44
